# Start timestamp: 1775794052843
# Start time: 10.04.2026 13:07:32.843
# Duration: 00:19.495
# Sensor insoles: Left SN13006, Right SN13007
# Size: 5
# Recording type: normal
# Name: 260410_13:07:32
# Notes: 
# Tag: 
# time	left pressure 1[N/cm²]	left pressure 2[N/cm²]	left pressure 3[N/cm²]	left pressure 4[N/cm²]	left pressure 5[N/cm²]	left pressure 6[N/cm²]	left pressure 7[N/cm²]	left pressure 8[N/cm²]	left pressure 9[N/cm²]	left pressure 10[N/cm²]	left pressure 11[N/cm²]	left pressure 12[N/cm²]	left pressure 13[N/cm²]	left pressure 14[N/cm²]	left pressure 15[N/cm²]	left pressure 16[N/cm²]	left acceleration X[g]	left acceleration Y[g]	left acceleration Z[g]	left angular X[dps]	left angular Y[dps]	left angular Z[dps]	left total force[N]	left center of pressure X[-0.5...+0.5]	left center of pressure Y[-0.5...+0.5]	right pressure 1[N/cm²]	right pressure 2[N/cm²]	right pressure 3[N/cm²]	right pressure 4[N/cm²]	right pressure 5[N/cm²]	right pressure 6[N/cm²]	right pressure 7[N/cm²]	right pressure 8[N/cm²]	right pressure 9[N/cm²]	right pressure 10[N/cm²]	right pressure 11[N/cm²]	right pressure 12[N/cm²]	right pressure 13[N/cm²]	right pressure 14[N/cm²]	right pressure 15[N/cm²]	right pressure 16[N/cm²]	right acceleration X[g]	right acceleration Y[g]	right acceleration Z[g]	right angular X[dps]	right angular Y[dps]	right angular Z[dps]	right total force[N]	right center of pressure X[-0.5...+0.5]	right center of pressure Y[-0.5...+0.5]
0.00																										7.50	7.25	8.50	8.25	4.25	6.25	0.00	4.25	0.75	3.00	3.50	3.50	3.75	6.25	1.75	3.00	-0.234375	0.129883	0.990723	-9.520000	6.300000	-2.100000	744.00	-0.081290	-0.105106
0.01																										7.25	6.50	8.00	8.00	4.50	6.00	0.00	4.00	0.75	3.00	3.50	3.50	3.50	7.00	1.25	3.25	-0.245605	0.126953	0.984375	-8.330000	5.880000	-2.100000	723.00	-0.074105	-0.100554
0.02	1.50	2.50	2.00	2.75	0.25	0.50	0.00	0.25	0.00	0.00	0.00	0.00	0.00	0.00	0.00	0.00	-0.791992	0.445801	1.918945	-123.129997	51.730000	-38.709999	103.00	-0.307458	-0.094480	6.75	6.50	7.50	7.25	4.25	5.75	0.00	4.00	0.75	3.75	4.25	4.00	3.75	8.00	1.50	3.25	-0.248047	0.124512	0.988770	-7.420000	5.250000	-2.450000	733.00	-0.050740	-0.099635
0.03	3.25	3.75	3.25	4.00	0.25	0.50	0.00	0.25	0.00	0.00	0.00	0.00	0.25	0.00	0.00	0.00	-0.305176	-0.357422	1.830078	-48.580002	61.599998	2.240000	162.00	-0.314253	-0.077012	6.00	6.00	6.50	6.75	4.00	5.25	0.00	4.00	1.25	4.75	5.00	4.25	4.00	8.75	1.75	3.75	-0.248047	0.133301	0.992676	-5.740000	5.110000	-2.170000	737.00	-0.020167	-0.097299
0.04	4.25	5.00	4.50	5.50	0.25	1.00	0.00	0.50	0.00	0.00	0.00	0.00	0.25	0.00	0.00	0.00	-0.296387	0.008301	0.912109	8.540000	-2.660000	-0.210000	224.00	-0.309574	-0.083617	5.75	5.75	5.75	6.00	3.25	4.75	0.00	3.75	1.50	5.00	5.50	4.50	4.00	10.00	2.00	3.75	-0.249023	0.127930	0.994629	-3.920000	6.370000	-2.310000	725.00	0.003171	-0.091969
0.05	4.50	5.00	5.00	6.00	0.50	1.00	0.00	0.50	0.00	0.00	0.00	0.00	0.25	0.00	0.00	0.00	-0.224609	0.221680	0.988770	7.350000	2.240000	0.000000	240.00	-0.306953	-0.079099	4.00	5.00	4.50	5.25	2.75	4.00	0.00	3.50	1.50	5.25	6.00	4.50	4.00	11.00	2.00	3.75	-0.240234	0.127930	0.999512	-2.590000	7.980000	-2.870000	677.00	0.038206	-0.092278
0.06	4.50	4.75	4.75	6.00	0.50	1.00	0.00	0.50	0.00	0.00	0.00	0.25	0.50	0.25	0.00	0.00	-0.174805	0.088379	0.956055	3.290000	4.060000	2.030000	242.00	-0.290184	-0.083732	2.25	4.00	2.75	3.75	2.50	2.75	0.00	3.25	2.00	6.00	6.25	5.00	4.00	11.50	2.50	4.00	-0.223633	0.130371	1.001953	-1.470000	10.640000	-3.990000	626.00	0.094215	-0.088713
0.07	4.75	4.50	5.00	5.75	0.25	1.25	0.00	0.50	0.00	0.00	0.00	0.50	0.50	0.50	0.00	0.00	-0.224121	0.075195	0.995605	2.660000	3.920000	0.280000	247.00	-0.278878	-0.081131	0.50	2.00	1.50	2.25	2.00	2.00	0.00	2.75	2.25	6.00	6.50	5.00	4.00	12.50	2.25	3.75	-0.206543	0.153320	1.014648	0.350000	13.860000	-8.260000	548.00	0.160125	-0.080938
0.08	4.00	4.50	4.50	5.75	0.50	1.25	0.00	0.75	0.00	0.00	0.00	0.25	0.75	0.50	0.00	0.25	-0.219727	0.117676	0.981934	3.990000	2.590000	0.490000	241.00	-0.266945	-0.096839	0.25	0.75	0.50	1.25	0.75	1.00	0.00	2.50	2.25	6.25	7.00	5.00	4.00	13.25	2.25	3.75	-0.239746	0.136230	0.996582	0.350000	18.760000	-8.890000	498.00	0.216141	-0.074245
0.09	3.75	4.50	4.50	5.75	0.25	1.50	0.00	0.75	0.00	0.00	0.00	0.50	0.75	0.50	0.00	0.25	-0.219727	0.106445	0.975586	4.410000	2.310000	0.700000	241.00	-0.260600	-0.104996	0.25	0.25	0.00	0.25	0.25	0.50	0.00	2.25	2.75	6.25	7.75	5.50	4.00	13.50	2.00	3.75	-0.220703	0.145996	0.979980	2.800000	22.120001	-10.150000	481.00	0.249549	-0.065828
0.10	3.50	4.25	4.50	5.75	0.25	1.50	0.00	1.00	0.00	0.00	0.00	0.50	0.75	0.50	0.00	0.25	-0.222656	0.109863	0.978516	4.550000	1.260000	0.350000	240.00	-0.253637	-0.111252	0.00	0.25	0.25	0.25	0.25	0.25	0.00	1.75	2.75	6.25	8.00	6.00	4.00	13.75	2.25	3.75	-0.226562	0.110840	1.071777	8.610000	33.320000	-9.100000	484.00	0.257429	-0.061370
0.11	3.50	4.75	4.50	5.75	0.50	1.50	0.00	1.00	0.00	0.00	0.00	0.50	0.75	0.50	0.00	0.50	-0.211426	0.100098	0.977051	4.480000	0.980000	0.560000	249.00	-0.251884	-0.111469	0.25	0.25	0.25	0.25	0.00	0.25	0.00	1.50	2.75	6.75	8.25	6.00	4.00	13.50	2.25	3.75	-0.293945	0.136230	1.018066	12.040000	43.259998	-9.170000	486.00	0.257154	-0.058568
0.12	4.00	4.75	4.75	6.00	0.50	1.75	0.00	1.00	0.00	0.25	0.00	0.50	1.00	0.50	0.00	0.75	-0.215332	0.099121	0.977051	4.550000	0.700000	0.630000	269.00	-0.243035	-0.110081	0.25	0.25	0.00	0.25	0.00	0.25	0.00	1.25	2.75	6.75	8.00	5.50	3.75	13.25	2.25	3.75	-0.288574	0.125488	1.076172	10.990000	48.509998	-9.660000	467.00	0.262912	-0.052943
0.13	4.25	4.50	4.75	6.00	0.50	1.75	0.00	1.25	0.00	0.00	0.00	0.50	1.00	0.25	0.00	0.75	-0.212891	0.101074	0.973633	4.480000	0.280000	0.700000	268.00	-0.249714	-0.115459	0.50	0.00	0.25	0.25	0.00	0.25	0.00	1.25	2.75	6.75	8.00	5.50	3.75	13.75	2.00	3.75	-0.278320	0.125000	1.056641	11.480000	56.770000	-10.010000	472.00	0.259995	-0.048415
0.14	4.50	5.00	5.50	6.25	0.75	2.00	0.00	1.00	0.00	0.00	0.00	0.50	1.00	0.25	0.00	0.75	-0.212402	0.107422	0.981445	4.060000	0.490000	0.560000	288.00	-0.255614	-0.105494	0.25	0.00	0.50	0.50	0.25	0.00	0.00	1.00	2.25	6.75	7.75	5.25	3.75	13.75	2.25	3.75	-0.322266	0.127930	1.099609	8.190000	64.190002	-10.430000	461.00	0.261057	-0.047678
0.15	4.50	5.00	5.50	6.50	0.75	2.25	0.00	1.00	0.00	0.00	0.00	0.50	1.00	0.50	0.00	0.75	-0.210938	0.114258	0.976562	3.780000	0.490000	0.420000	296.00	-0.250146	-0.106104	0.25	0.25	0.25	0.50	0.00	0.00	0.00	0.75	2.50	6.50	7.75	5.25	3.50	13.25	2.50	3.50	-0.317383	0.151367	1.041016	6.090000	71.820000	-10.500000	450.00	0.265167	-0.044730
0.16	5.00	5.25	5.75	7.00	0.75	2.50	0.00	1.25	0.00	0.00	0.00	0.75	1.25	1.00	0.00	0.75	-0.211914	0.107910	0.979004	3.430000	0.490000	0.490000	327.00	-0.235803	-0.108351	0.75	0.25	0.25	0.25	0.00	0.00	0.00	0.75	2.50	6.50	7.25	5.00	3.25	12.75	2.50	3.25	-0.319336	0.112793	1.003418	4.760000	75.320000	-11.200000	437.00	0.260280	-0.038674
0.17	5.00	5.25	5.75	7.00	0.75	2.25	0.00	1.25	0.00	0.00	0.00	0.50	1.00	1.00	0.00	0.75	-0.216309	0.112793	0.977539	3.010000	0.350000	0.490000	319.00	-0.242938	-0.103008	0.25	0.25	0.25	0.00	0.00	0.00	0.00	0.50	2.50	6.25	7.00	4.75	3.25	12.25	1.75	3.25	-0.332031	0.150879	0.988281	4.480000	79.309998	-11.480000	405.00	0.271238	-0.035895
0.18	5.00	5.25	6.00	7.00	0.75	2.75	0.00	1.25	0.00	0.00	0.00	0.50	1.00	0.75	0.00	1.00	-0.215820	0.112793	0.974609	2.590000	0.350000	0.350000	327.00	-0.243379	-0.106897	0.25	0.50	0.50	0.25	0.25	0.00	0.00	0.75	2.50	6.00	7.25	4.75	3.00	12.25	2.00	3.00	-0.350586	0.136719	1.003906	4.130000	82.110001	-11.830000	419.00	0.256042	-0.037918
0.19	5.25	5.25	5.75	7.25	0.75	2.75	0.00	1.25	0.00	0.00	0.00	0.75	1.25	0.75	0.00	1.00	-0.205078	0.114746	0.979980	2.030000	0.560000	0.490000	334.00	-0.238549	-0.111621	0.50	0.25	0.50	0.50	0.00	0.00	0.00	0.75	2.25	6.25	6.50	4.50	3.00	12.00	2.00	3.00	-0.360352	0.132812	0.999512	3.780000	85.120003	-11.620000	406.00	0.254537	-0.038002
0.20	5.25	5.50	6.00	7.50	0.75	2.75	0.00	1.50	0.00	0.00	0.25	0.50	1.25	0.75	0.00	1.00	-0.212891	0.109863	0.970703	1.960000	0.630000	0.560000	346.00	-0.237751	-0.112976	0.75	0.25	0.50	0.50	0.00	0.00	0.00	0.75	2.25	6.00	6.25	4.25	2.75	11.50	2.00	3.25	-0.395996	0.132812	0.982422	1.680000	88.690002	-11.130000	395.00	0.249947	-0.036424
0.21	5.25	5.50	6.50	7.75	0.75	2.75	0.00	1.50	0.00	0.00	0.00	0.50	1.25	1.00	0.00	1.50	-0.212891	0.114258	0.973145	1.750000	0.770000	0.490000	356.00	-0.233522	-0.110441	0.25	0.25	0.25	0.25	0.00	0.00	0.00	0.50	2.25	5.75	6.00	4.25	2.75	11.00	2.00	2.75	-0.404297	0.141602	0.958984	1.820000	92.050003	-11.480000	368.00	0.267274	-0.034917
0.22	5.50	5.50	6.50	7.75	1.00	3.25	0.00	1.50	0.00	0.00	0.00	0.75	1.25	1.25	0.00	1.25	-0.213379	0.114258	0.968750	1.750000	0.630000	0.560000	370.00	-0.228031	-0.108939	0.00	0.25	0.00	0.75	0.00	0.25	0.00	0.50	1.75	5.50	6.00	4.00	2.50	11.00	2.00	3.00	-0.415039	0.145996	0.965332	0.700000	95.269997	-12.250000	359.00	0.266368	-0.044549
0.23	5.50	5.50	6.75	7.75	1.00	3.75	0.00	1.50	0.00	0.00	0.25	0.75	1.50	1.25	0.25	1.50	-0.212891	0.115234	0.970703	1.960000	0.770000	0.560000	388.00	-0.215570	-0.112369	0.00	0.25	0.25	0.75	0.00	0.25	0.00	0.50	1.50	5.00	5.50	3.25	2.50	10.25	2.00	3.50	-0.426270	0.169922	0.989258	0.770000	100.029999	-13.860000	336.00	0.262443	-0.047595
0.24	5.50	5.75	6.75	8.25	1.00	3.50	0.00	1.50	0.00	0.00	0.25	1.00	1.50	1.00	0.25	1.75	-0.209961	0.119141	0.970703	2.380000	0.980000	0.770000	394.00	-0.216748	-0.116622	0.25	0.25	0.25	0.25	0.00	0.00	0.00	0.50	1.50	5.00	5.25	3.25	2.25	10.00	2.00	3.25	-0.453613	0.173340	0.977539	0.210000	106.050003	-16.660000	322.00	0.269473	-0.038449
0.25	5.75	6.00	6.50	8.25	1.00	3.50	0.00	1.50	0.00	0.00	0.00	1.00	1.50	1.00	0.25	1.75	-0.206543	0.116211	0.965820	2.870000	0.980000	0.980000	394.00	-0.221737	-0.116894	0.00	0.25	0.25	0.00	0.00	0.00	0.00	0.75	1.75	5.00	5.00	3.25	2.00	9.00	2.00	3.00	-0.470215	0.178223	0.992676	0.280000	113.470001	-20.160000	309.00	0.273149	-0.040188
0.26	5.75	6.00	7.00	8.50	1.00	3.75	0.00	1.75	0.00	0.25	0.00	1.00	2.00	1.25	0.25	1.75	-0.209473	0.111816	0.964355	3.640000	1.400000	1.050000	418.00	-0.210231	-0.119317	0.00	0.50	0.00	0.25	0.00	0.25	0.00	0.75	1.75	5.00	5.00	3.00	2.00	8.75	2.00	3.00	-0.471191	0.145996	1.094727	3.640000	126.349998	-21.840000	310.00	0.263776	-0.045294
0.27	5.75	6.25	7.50	8.75	1.00	4.00	0.00	2.00	0.00	0.00	0.00	1.25	2.00	1.25	0.25	2.00	-0.214355	0.118164	0.965820	4.270000	1.960000	1.120000	436.00	-0.208800	-0.123653	0.25	0.25	0.00	0.25	0.00	0.25	0.00	0.50	1.50	4.50	5.00	3.25	2.00	8.25	2.00	3.25	-0.508301	0.134766	1.092285	-3.220000	133.979996	-23.309999	297.00	0.265055	-0.050648
0.28	5.75	6.25	7.50	9.25	1.25	4.75	0.00	2.25	0.00	0.00	0.00	1.25	2.00	1.50	0.25	2.00	-0.210938	0.117676	0.967285	5.110000	2.450000	1.330000	459.00	-0.203722	-0.127238	0.25	0.00	0.00	0.25	0.00	0.00	0.00	0.50	1.50	4.25	4.25	3.00	2.00	7.75	2.00	3.00	-0.517578	0.201660	1.144043	-2.940000	145.600006	-25.549999	274.00	0.274083	-0.046568
0.29	6.00	6.50	7.50	9.50	1.25	5.25	0.00	2.25	0.00	0.00	0.25	1.25	2.50	1.75	0.25	2.50	-0.213867	0.116211	0.971680	5.600000	2.450000	1.400000	484.00	-0.194147	-0.130993	0.25	0.00	0.00	0.00	0.00	0.00	0.00	0.50	1.50	3.50	3.50	2.75	1.75	7.00	1.75	2.75	-0.518066	0.222168	1.198242	-3.290000	156.520004	-29.540001	240.00	0.279191	-0.043434
0.30	6.25	6.75	8.00	10.00	1.50	5.25	0.00	2.50	0.00	0.25	0.25	1.75	2.50	2.00	0.25	2.50	-0.213379	0.123535	0.966797	5.880000	3.010000	1.610000	516.00	-0.187436	-0.128888	0.00	0.25	0.00	0.25	0.00	0.00	0.00	0.50	1.25	2.75	3.00	2.50	2.00	6.25	1.25	2.00	-0.584961	0.231445	1.148926	-0.770000	167.229996	-34.860001	210.00	0.266618	-0.057809
0.31	6.50	7.00	8.50	10.75	2.00	6.00	0.00	3.00	0.00	0.25	0.50	1.50	2.75	2.25	0.00	2.75	-0.214355	0.116699	0.974609	6.020000	3.010000	1.610000	559.00	-0.185857	-0.130935	0.00	0.00	0.25	0.25	0.00	0.25	0.00	0.50	1.00	2.50	2.50	2.00	1.75	5.75	1.25	2.25	-0.625000	0.112793	1.243652	-0.140000	177.029999	-38.430000	192.00	0.262917	-0.059088
0.32	6.50	6.75	8.75	11.25	2.00	6.50	0.00	3.25	0.00	0.25	0.75	2.00	3.00	2.50	0.00	2.75	-0.218262	0.122559	0.973145	6.090000	2.800000	1.750000	586.00	-0.175972	-0.135150	0.25	0.25	0.25	0.25	0.00	0.00	0.00	0.50	0.75	2.25	1.50	1.25	1.50	5.25	1.00	1.75	-0.558594	0.205078	0.950195	-6.510000	191.869995	-41.299999	158.00	0.248163	-0.043622
0.33	6.75	7.25	8.50	11.50	2.00	6.75	0.00	3.50	0.00	0.25	0.25	2.50	3.25	2.50	0.00	3.00	-0.218262	0.123535	0.972656	6.090000	2.870000	1.890000	604.00	-0.175412	-0.141162	0.25	0.25	0.00	0.50	0.00	0.00	0.00	0.50	0.75	1.50	0.75	1.00	1.25	4.50	1.00	1.75	-0.861328	0.185547	1.377930	7.700000	201.529999	-40.670002	131.00	0.243760	-0.051120
0.34	7.25	7.25	9.00	12.25	2.00	7.25	0.00	3.50	0.00	0.25	0.50	2.50	3.50	2.25	0.00	3.25	-0.216797	0.137207	0.978516	6.020000	2.450000	1.820000	632.00	-0.177318	-0.141742	0.00	0.00	0.00	0.50	0.00	0.25	0.00	0.25	0.50	1.25	0.25	0.50	1.00	3.75	1.00	1.25	-0.488770	0.390625	1.150879	25.340000	210.070007	-39.970001	97.00	0.265445	-0.041354
0.35	7.00	7.75	9.25	12.75	2.50	8.25	0.00	4.25	0.00	0.50	1.00	2.75	3.75	2.25	0.25	3.50	-0.210449	0.124512	0.977051	5.950000	2.310000	1.820000	687.00	-0.165221	-0.147921	0.25	0.00	0.25	0.00	0.00	0.00	0.00	0.00	0.75	0.75	0.25	0.25	0.75	2.75	0.75	0.75	-0.738770	0.270020	1.269043	50.189999	203.070007	-46.689999	70.00	0.273829	0.026708
0.36	7.25	7.75	9.50	12.75	2.25	8.50	0.00	4.75	0.00	0.50	1.25	3.25	4.00	2.50	0.50	3.50	-0.220215	0.122559	0.977539	5.880000	2.030000	1.610000	715.00	-0.155915	-0.150652	0.50	0.25	0.00	0.00	0.00	0.00	0.00	0.00	0.50	0.50	0.25	0.25	0.50	1.75	0.25	0.25	-0.814453	0.354004	1.111328	55.510002	201.669998	-53.689999	48.00	0.000000	0.000000
0.37	7.25	8.25	9.50	12.75	2.25	8.75	0.00	5.00	0.00	0.50	1.00	3.25	4.25	3.00	0.50	3.50	-0.217773	0.137695	0.981934	5.460000	1.960000	1.540000	730.00	-0.153885	-0.151596	0.25	0.25	0.00	0.25	0.00	0.00	0.00	0.00	0.25	0.25	0.50	0.00	0.25	0.50	0.00	0.00	-0.609375	0.445312	1.215332	68.040001	198.309998	-55.930000	25.00	0.000000	0.000000
0.38	7.50	8.25	9.50	13.00	2.25	9.25	0.00	5.25	0.00	0.50	1.00	3.50	4.25	3.00	0.50	4.00	-0.215332	0.135254	0.981445	5.040000	1.820000	1.260000	750.00	-0.151363	-0.154157	0.25	0.25	0.25	0.25	0.00	0.00	0.00	0.00	0.25	0.25	0.25	0.25	0.25	0.50	0.00	0.25	-0.725586	0.253906	0.890137	89.250000	171.430008	-68.040001	29.00	0.000000	0.000000
0.39	7.50	8.25	9.25	13.25	2.25	9.25	0.00	5.50	0.00	0.75	1.25	3.50	4.50	3.25	0.50	3.75	-0.219727	0.130859	0.978027	4.480000	1.750000	0.980000	761.00	-0.146530	-0.155279	0.75	0.25	0.50	0.50	0.00	0.25	0.00	0.00	0.00	0.00	0.00	0.00	0.00	0.50	0.25	0.25	-0.638672	0.337402	0.617188	111.370003	170.380005	-71.680000	32.00	0.000000	0.000000
0.40	7.50	8.00	9.75	13.00	2.50	9.75	0.00	5.50	0.00	0.75	1.50	3.50	4.75	3.00	0.25	4.00	-0.218262	0.131836	0.976562	3.990000	1.750000	0.770000	772.00	-0.146435	-0.155461	0.50	0.25	0.75	0.75	0.00	0.00	0.00	0.00	0.25	0.25	0.25	0.00	0.00	0.50	0.00	0.00	-0.450684	0.022949	0.909668	114.520004	154.490005	-75.879997	37.00	0.000000	0.000000
0.41	7.25	8.00	9.50	12.75	2.75	9.75	0.00	5.50	0.00	0.50	1.50	3.75	4.75	3.00	0.50	4.00	-0.221680	0.133301	0.979980	3.430000	1.610000	0.490000	769.00	-0.142755	-0.157188	0.50	0.50	1.75	0.75	0.00	0.00	0.00	0.00	0.00	0.00	0.00	0.00	0.00	0.00	0.00	0.00	0.450684	-0.404785	0.850586	98.840004	121.169998	-83.930000	38.00	0.000000	0.000000
0.42	7.50	8.00	9.25	12.75	2.50	9.50	0.00	5.75	0.00	0.25	1.50	3.75	5.00	2.75	0.75	4.25	-0.218262	0.137695	0.978027	2.730000	1.680000	0.420000	768.00	-0.141751	-0.161273	0.75	0.75	1.00	1.00	0.00	0.00	0.00	0.00	0.00	0.00	0.00	0.00	0.00	0.00	0.00	0.00	-0.373535	-0.166504	1.647461	75.809998	70.769997	-116.199997	37.00	0.000000	0.000000
0.43	7.00	8.00	9.25	12.50	2.50	9.50	0.00	5.75	0.00	0.50	1.50	4.25	5.00	3.00	0.50	4.00	-0.221680	0.139648	0.978516	2.240000	1.610000	0.140000	767.00	-0.136993	-0.162087	0.75	0.75	0.75	1.00	0.00	0.00	0.00	0.00	0.00	0.00	0.00	0.00	0.00	0.00	0.00	0.00	0.311523	-0.377441	1.395020	32.480000	-35.700001	-114.800003	34.00	0.000000	0.000000
0.44	7.00	7.75	9.00	12.25	2.75	9.25	0.00	5.50	0.00	0.75	1.75	4.25	5.25	3.25	0.75	4.00	-0.217773	0.134277	0.967773	1.750000	1.820000	0.210000	767.00	-0.128895	-0.159140	0.75	0.75	0.50	0.75	0.00	0.00	0.00	0.00	0.00	0.00	0.00	0.00	0.00	0.00	0.00	0.00	0.028320	-0.267090	1.066895	-8.190000	-77.559998	-115.080002	28.00	0.000000	0.000000
0.45	6.75	7.75	8.75	11.75	2.50	9.25	0.00	5.75	0.00	0.75	1.75	4.25	5.25	3.50	0.50	4.00	-0.218750	0.135742	0.980469	1.260000	2.100000	-0.070000	757.00	-0.126071	-0.161785	1.00	0.25	0.50	0.75	0.00	0.00	0.00	0.00	0.00	0.00	0.00	0.00	0.00	0.25	0.00	0.00	0.009766	-0.110840	0.733887	-32.060001	-91.629997	-108.290001	29.00	0.000000	0.000000
0.46	6.75	7.50	8.50	11.75	2.25	9.25	0.00	5.75	0.00	0.75	1.75	4.25	5.25	3.50	0.25	4.00	-0.218262	0.138672	0.969727	0.770000	2.450000	-0.210000	746.00	-0.126537	-0.163811	0.50	0.00	0.50	0.50	0.00	0.00	0.00	0.00	0.00	0.00	0.00	0.00	0.00	0.25	0.00	0.00	0.038574	0.008301	0.601562	-29.190001	-91.629997	-95.760002	18.00	0.000000	0.000000
0.47	6.25	7.50	8.25	11.50	2.50	9.00	0.00	5.50	0.00	0.50	2.25	4.25	5.25	3.25	0.50	4.25	-0.219727	0.131836	0.969727	0.350000	2.450000	-0.350000	736.00	-0.121499	-0.165473	0.50	0.25	0.25	0.50	0.00	0.00	0.00	0.00	0.00	0.00	0.00	0.00	0.00	0.00	0.00	0.00	0.045898	0.084961	0.571289	-10.710000	-88.199997	-79.449997	16.00	0.000000	0.000000
0.48	6.25	7.00	8.25	11.25	2.50	8.75	0.00	5.50	0.00	0.25	2.00	4.25	5.00	3.25	0.75	4.25	-0.223145	0.140137	0.973145	-0.000000	2.660000	-0.350000	722.00	-0.120377	-0.164651	0.25	0.50	0.25	0.75	0.00	0.00	0.00	0.00	0.00	0.00	0.00	0.00	0.00	0.00	0.00	0.00	0.067871	0.072266	0.573730	7.490000	-84.559998	-59.990002	18.00	0.000000	0.000000
0.49	6.25	7.00	8.00	10.75	2.50	8.50	0.00	5.25	0.00	0.50	2.50	4.25	5.25	3.50	0.75	4.00	-0.216797	0.144531	0.972656	-0.140000	2.660000	-0.560000	717.00	-0.113607	-0.161980	0.00	0.50	0.50	0.25	0.00	0.00	0.00	0.00	0.00	0.00	0.00	0.00	0.00	0.00	0.00	0.00	0.078125	0.078125	0.589844	19.950001	-77.769997	-29.820000	13.00	0.000000	0.000000
0.50	6.00	6.75	7.50	10.50	2.50	8.25	0.00	5.25	0.00	0.75	2.50	4.50	5.25	3.50	0.75	4.00	-0.222168	0.135742	0.975098	-0.210000	2.660000	-0.560000	707.00	-0.107032	-0.163937	0.25	0.50	0.50	0.25	0.00	0.00	0.00	0.00	0.00	0.00	0.00	0.00	0.00	0.25	0.00	0.00	0.089355	0.087891	0.627441	22.400000	-72.449997	-10.150000	18.00	0.000000	0.000000
0.51	6.00	6.75	7.50	10.25	2.50	8.25	0.00	5.50	0.00	1.00	2.75	4.75	5.25	3.75	0.50	4.25	-0.220703	0.139648	0.971680	-0.210000	2.450000	-0.490000	717.00	-0.101659	-0.163963	0.50	0.75	0.50	0.50	0.00	0.00	0.00	0.00	0.00	0.00	0.00	0.00	0.00	0.25	0.00	0.00	0.084473	0.090332	0.668945	24.430000	-69.090004	8.330000	25.00	0.000000	0.000000
0.52	5.75	6.75	7.50	10.00	2.50	8.00	0.00	5.50	0.00	0.75	2.25	4.75	5.00	3.75	0.50	4.25	-0.217285	0.137207	0.974609	-0.280000	2.240000	-0.420000	699.00	-0.104184	-0.164595	0.50	0.25	0.25	0.50	0.00	0.00	0.00	0.00	0.00	0.00	0.00	0.00	0.00	0.25	0.00	0.00	0.063965	0.063965	0.729492	26.950001	-67.550003	24.990000	18.00	0.000000	0.000000
0.53	5.25	6.50	7.50	10.00	2.25	8.00	0.00	5.50	0.00	0.75	2.50	5.00	5.25	3.50	1.00	4.25	-0.221680	0.138184	0.967773	-0.210000	1.960000	-0.490000	699.00	-0.095315	-0.169155	0.25	0.25	0.25	0.50	0.00	0.00	0.00	0.00	0.00	0.00	0.00	0.00	0.00	0.25	0.00	0.00	0.049316	0.027344	0.818359	29.680000	-67.970001	39.549999	15.00	0.000000	0.000000
0.54	5.50	6.50	6.75	9.75	2.25	8.00	0.00	5.50	0.00	1.00	2.75	4.75	5.25	3.75	0.75	4.25	-0.219727	0.139160	0.968750	-0.490000	1.750000	-0.490000	692.00	-0.092677	-0.168729	0.25	0.00	0.25	0.00	0.00	0.00	0.00	0.00	0.00	0.00	0.00	0.00	0.00	0.50	0.00	0.00	0.033203	-0.011719	0.942383	30.940001	-72.449997	52.639999	10.00	0.000000	0.000000
0.55	5.75	6.50	6.75	10.00	2.50	8.00	0.00	5.25	0.00	1.00	2.75	5.00	5.50	4.25	0.75	4.25	-0.214355	0.135254	0.970703	-0.420000	1.540000	-0.560000	706.00	-0.090154	-0.165115	0.00	0.25	0.50	0.00	0.00	0.00	0.00	0.00	0.00	0.00	0.00	0.00	0.00	0.00	0.00	0.00	0.021484	-0.068359	1.137695	26.880001	-89.879997	69.440002	8.00	0.000000	0.000000
0.56	5.75	6.50	7.25	10.00	2.75	7.75	0.00	5.50	0.00	1.00	2.75	5.00	5.50	4.50	0.75	4.25	-0.215820	0.134766	0.973145	-0.350000	1.400000	-0.490000	717.00	-0.089512	-0.162046	0.25	0.00	0.25	0.25	0.00	0.00	0.00	0.00	0.00	0.00	0.00	0.00	0.00	0.00	0.00	0.00	-0.003418	-0.105469	1.223145	20.020000	-108.010002	77.910004	8.00	0.000000	0.000000
0.57	5.75	6.50	7.25	10.00	2.75	8.00	0.00	5.50	0.00	1.00	2.50	5.00	5.75	4.50	1.00	4.25	-0.222168	0.138672	0.970703	-0.280000	1.260000	-0.420000	722.00	-0.088304	-0.163239	0.50	0.25	0.25	0.50	0.00	0.00	0.00	0.00	0.00	0.00	0.00	0.00	0.00	0.00	0.00	0.00	-0.040039	-0.148926	1.262695	11.760000	-128.800003	83.230003	16.00	0.000000	0.000000
0.58	5.75	6.50	7.50	10.00	2.50	8.00	0.00	5.50	0.00	1.00	2.50	5.00	5.75	4.50	1.75	4.25	-0.223145	0.138184	0.964355	-0.280000	1.260000	-0.420000	730.00	-0.083483	-0.162242	0.25	0.25	0.50	0.50	0.00	0.00	0.00	0.00	0.00	0.00	0.00	0.00	0.00	0.00	0.00	0.00	-0.080566	-0.192383	1.225098	2.240000	-148.190002	84.769997	16.00	0.000000	0.000000
0.59	5.50	6.50	7.25	9.75	2.50	8.00	0.00	5.50	0.00	1.25	2.50	5.00	5.75	4.75	1.75	4.25	-0.215820	0.134766	0.963867	-0.280000	1.330000	-0.490000	727.00	-0.078263	-0.162133	0.00	0.00	0.25	0.50	0.00	0.00	0.00	0.00	0.00	0.00	0.00	0.00	0.00	0.00	0.00	0.00	-0.139160	-0.225098	1.168457	-7.000000	-162.960007	82.110001	8.00	0.000000	0.000000
0.60	5.50	6.50	7.25	9.75	2.75	8.00	0.00	5.75	0.00	1.25	3.00	5.25	5.75	4.75	1.25	4.25	-0.222168	0.136719	0.968262	-0.210000	1.260000	-0.420000	736.00	-0.078380	-0.163206	0.25	0.25	0.50	0.25	0.00	0.00	0.00	0.00	0.00	0.00	0.00	0.00	0.00	0.25	0.00	0.00	-0.219238	-0.224609	1.126953	-15.820000	-175.979996	70.910004	15.00	0.000000	0.000000
0.61	5.75	6.50	7.25	10.00	2.75	8.00	0.00	5.75	0.00	1.50	3.00	5.50	6.00	4.75	1.00	4.25	-0.219727	0.139160	0.972168	-0.490000	1.330000	-0.560000	746.00	-0.079144	-0.163317	0.50	0.25	0.50	0.25	0.00	0.00	0.00	0.00	0.00	0.00	0.00	0.00	0.00	0.00	0.00	0.00	-0.257812	-0.215820	1.134277	-17.920000	-181.369995	60.340000	16.00	0.000000	0.000000
0.62	6.00	6.50	7.50	10.00	2.75	8.25	0.00	5.75	0.00	1.00	3.25	5.75	6.00	5.00	1.25	4.25	-0.219238	0.138672	0.962402	-0.560000	1.330000	-0.490000	759.00	-0.078269	-0.162467	0.25	0.50	0.50	0.50	0.00	0.00	0.00	0.00	0.00	0.00	0.00	0.00	0.00	0.00	0.00	0.00	-0.298340	-0.199219	1.176270	-19.740000	-186.270004	48.860001	18.00	0.000000	0.000000
0.63	5.75	6.25	7.75	9.75	2.75	8.00	0.00	5.75	0.00	1.00	3.25	5.50	6.00	5.00	1.25	4.25	-0.222656	0.137695	0.969238	-0.630000	1.330000	-0.490000	749.00	-0.076777	-0.161357	0.25	0.50	0.50	0.00	0.00	0.00	0.00	0.00	0.00	0.00	0.00	0.00	0.00	0.00	0.00	0.00	-0.327637	-0.164551	1.220215	-23.799999	-191.869995	38.500000	13.00	0.000000	0.000000
0.64	5.25	6.25	7.50	9.75	3.00	8.00	0.00	5.75	0.00	1.50	3.50	5.75	6.00	5.00	1.50	4.50	-0.226074	0.139160	0.967285	-0.770000	1.400000	-0.560000	758.00	-0.067350	-0.162080	0.50	0.25	0.50	0.00	0.00	0.25	0.00	0.00	0.00	0.00	0.00	0.00	0.00	0.00	0.00	0.00	-0.359375	-0.083984	1.257324	-28.630001	-197.470001	29.960001	16.00	0.000000	0.000000
0.65	5.75	6.25	7.50	9.50	2.75	8.00	0.00	5.75	0.00	1.50	3.50	5.75	6.25	5.00	1.50	4.25	-0.222168	0.139160	0.968262	-0.840000	1.400000	-0.490000	758.00	-0.068726	-0.161398	0.25	0.25	0.25	0.25	0.00	0.25	0.00	0.00	0.00	0.00	0.00	0.00	0.00	0.00	0.00	0.00	-0.395996	-0.024414	1.296387	-31.850000	-202.930008	24.430000	13.00	0.000000	0.000000
0.66	5.75	6.25	7.50	9.50	2.50	8.00	0.00	5.75	0.00	1.75	3.50	6.00	6.25	5.50	1.25	4.25	-0.218750	0.140625	0.974121	-1.050000	1.470000	-0.630000	763.00	-0.065466	-0.160275	0.00	0.50	0.25	0.50	0.00	0.25	0.00	0.00	0.00	0.00	0.00	0.00	0.00	0.00	0.00	0.00	-0.466797	0.096191	1.392090	-36.750000	-211.889999	19.879999	16.00	0.000000	0.000000
0.67	5.50	6.25	7.50	9.50	2.75	8.50	0.00	5.75	0.00	1.75	3.50	6.00	6.25	5.25	1.25	4.25	-0.218750	0.139160	0.972656	-1.120000	1.680000	-0.770000	766.00	-0.066484	-0.162128	0.00	0.25	0.25	0.00	0.00	0.00	0.00	0.00	0.00	0.00	0.00	0.00	0.00	0.00	0.00	0.00	-0.530762	0.181152	1.412109	-41.580002	-219.100006	21.070000	5.00	0.000000	0.000000
0.68	5.50	6.25	7.50	9.50	3.00	8.00	0.00	5.50	0.00	1.50	3.75	5.75	6.25	5.50	2.25	4.25	-0.220215	0.139160	0.966797	-1.330000	1.610000	-0.700000	770.00	-0.059532	-0.157531	0.25	0.00	0.25	0.00	0.00	0.00	0.00	0.00	0.00	0.00	0.00	0.00	0.00	0.00	0.00	0.00	-0.624512	0.259766	1.416504	-48.230000	-225.399994	24.780001	5.00	0.000000	0.000000
0.69	5.75	6.00	7.25	9.50	3.00	7.75	0.00	5.50	0.00	1.75	4.25	6.25	6.00	6.25	2.50	4.50	-0.224121	0.136230	0.964355	-1.540000	1.540000	-0.770000	786.00	-0.048375	-0.153475	0.25	0.25	0.25	0.25	0.00	0.00	0.00	0.00	0.00	0.00	0.00	0.00	0.00	0.00	0.00	0.00	-0.742188	0.335938	1.381348	-56.000000	-228.899994	29.049999	10.00	0.000000	0.000000
0.70	5.50	5.75	7.25	9.25	3.25	7.75	0.00	5.75	0.00	2.00	4.00	6.25	6.00	6.25	2.50	4.50	-0.222168	0.129395	0.974121	-1.680000	1.610000	-0.910000	785.00	-0.045339	-0.153863	0.25	0.00	0.25	0.00	0.00	0.00	0.00	0.00	0.00	0.00	0.00	0.00	0.00	0.00	0.00	0.00	-0.893555	0.419922	1.315430	-61.740002	-228.270004	32.270000	5.00	0.000000	0.000000
0.71	5.50	6.00	7.25	9.00	3.00	7.50	0.00	5.75	0.00	1.75	4.00	6.50	6.50	6.25	2.25	4.50	-0.221680	0.140137	0.964355	-1.680000	1.820000	-1.050000	780.00	-0.045360	-0.157145	0.50	0.00	0.50	0.00	0.00	0.00	0.00	0.00	0.00	0.00	0.00	0.00	0.00	0.00	0.00	0.00	-1.049805	0.474121	1.230957	-60.830002	-222.460007	33.040001	11.00	0.000000	0.000000
0.72	5.50	5.75	7.00	8.50	3.00	7.50	0.00	5.50	0.00	1.50	4.25	6.75	6.75	7.00	2.00	4.50	-0.221191	0.140625	0.969727	-1.680000	1.750000	-1.120000	775.00	-0.038250	-0.155792	0.25	0.25	0.50	0.00	0.00	0.00	0.00	0.00	0.00	0.00	0.00	0.00	0.00	0.00	0.00	0.00	-1.273926	0.522461	1.079102	-40.880001	-205.380005	28.840000	10.00	0.000000	0.000000
0.73	5.25	5.75	7.00	8.50	3.25	7.50	0.00	5.75	0.00	2.50	4.50	6.75	6.50	7.25	2.50	4.50	-0.220703	0.137695	0.968262	-1.680000	1.890000	-1.260000	797.00	-0.029151	-0.151825	0.25	0.25	0.25	0.00	0.00	0.25	0.00	0.00	0.00	0.00	0.00	0.00	0.00	0.00	0.00	0.00	-1.387207	0.516602	0.974609	-19.040001	-190.119995	23.730000	10.00	0.000000	0.000000
0.74	5.50	5.50	6.75	8.50	3.00	7.25	0.00	5.75	0.00	2.75	4.50	6.75	6.75	7.25	2.50	4.50	-0.217285	0.138184	0.970703	-1.540000	1.680000	-1.120000	794.00	-0.026235	-0.152243	0.00	0.00	0.25	0.25	0.00	0.00	0.00	0.00	0.00	0.00	0.00	0.00	0.00	0.00	0.00	0.00	-1.474609	0.476562	0.889648	1.960000	-173.039993	18.549999	6.00	0.000000	0.000000
0.75	5.00	5.50	6.75	8.00	3.25	7.00	0.00	5.75	0.00	2.75	4.75	7.00	7.00	8.00	2.25	4.75	-0.219727	0.130371	0.972656	-1.680000	1.890000	-1.190000	795.00	-0.017002	-0.151347	0.00	0.00	0.50	0.25	0.00	0.00	0.00	0.00	0.00	0.00	0.00	0.00	0.00	0.00	0.00	0.00	-1.513672	0.422363	0.839844	17.500000	-155.889999	15.050000	8.00	0.000000	0.000000
0.76	5.00	5.50	6.50	7.75	3.25	7.00	0.00	5.75	0.00	2.50	5.00	7.25	7.00	8.50	2.25	4.75	-0.221191	0.134277	0.971191	-1.610000	2.030000	-1.260000	797.00	-0.012202	-0.151241	0.25	0.25	0.50	0.25	0.00	0.00	0.00	0.00	0.00	0.00	0.00	0.00	0.00	0.00	0.00	0.00	-1.541016	0.353516	0.824219	27.090000	-134.680008	14.490000	13.00	0.000000	0.000000
0.77	5.00	5.25	6.50	7.75	3.25	7.00	0.00	5.75	0.00	3.00	5.25	7.50	7.25	8.75	2.25	5.00	-0.225586	0.141113	0.976074	-1.610000	2.450000	-1.400000	811.00	-0.005721	-0.150412	0.25	0.25	0.25	0.00	0.00	0.00	0.00	0.00	0.00	0.00	0.00	0.00	0.00	0.00	0.00	0.00	-1.534668	0.316406	0.794434	26.460001	-125.230003	16.309999	8.00	0.000000	0.000000
0.78	4.75	5.00	6.00	7.25	3.25	6.75	0.00	5.75	0.00	3.00	5.50	7.50	7.25	9.75	3.25	5.00	-0.219238	0.128906	0.972656	-1.470000	2.450000	-1.330000	814.00	0.011348	-0.147499	0.00	0.50	0.25	0.00	0.00	0.00	0.00	0.00	0.00	0.00	0.00	0.00	0.00	0.00	0.00	0.00	-1.523438	0.291992	0.751465	23.100000	-118.860001	17.990000	7.00	0.000000	0.000000
0.79	4.25	5.00	6.25	6.75	3.25	6.50	0.00	5.75	0.25	3.00	6.00	7.75	7.25	10.00	3.50	5.00	-0.222656	0.139648	0.974121	-1.330000	2.730000	-1.470000	819.00	0.020868	-0.144911	0.00	0.50	0.50	0.50	0.00	0.00	0.00	0.00	0.00	0.00	0.00	0.00	0.00	0.00	0.00	0.00	-1.459961	0.273926	0.677246	17.990000	-113.540001	17.500000	16.00	0.000000	0.000000
0.80	3.75	4.75	6.00	6.50	3.25	6.50	0.00	5.75	0.25	3.75	6.25	7.75	7.50	10.50	3.25	5.25	-0.228027	0.142578	0.968750	-1.540000	3.150000	-1.610000	822.00	0.031253	-0.144548	0.25	0.25	1.00	0.75	0.00	0.00	0.00	0.00	0.00	0.00	0.00	0.00	0.00	0.00	0.00	0.00	-1.582520	0.041992	-1.432617	66.709999	-34.090000	23.379999	24.00	0.000000	0.000000
0.81	3.75	4.50	5.25	6.00	3.25	6.25	0.00	5.75	0.25	4.50	6.75	8.00	7.75	11.75	3.25	5.25	-0.224121	0.128906	0.968262	-1.470000	3.780000	-1.750000	831.00	0.047185	-0.140936	0.25	0.25	1.00	0.75	0.00	0.00	0.00	0.00	0.00	0.00	0.00	0.00	0.00	0.00	0.00	0.00	-2.507812	0.243164	-0.364258	42.420002	13.720000	16.799999	24.00	0.000000	0.000000
0.82	3.00	3.75	4.75	5.25	3.25	6.25	0.00	5.75	0.25	4.50	6.75	8.50	7.50	12.75	3.75	5.25	-0.228027	0.139160	0.975098	-1.890000	3.990000	-1.890000	820.00	0.067673	-0.140273	0.75	1.00	1.00	1.00	0.00	0.00	0.00	0.00	0.00	0.00	0.00	0.00	0.00	0.00	0.00	0.00	-2.298828	0.300293	-0.260254	26.460001	58.099998	13.930000	39.00	0.000000	0.000000
0.83	2.00	3.50	4.25	5.00	3.00	5.25	0.00	5.50	0.25	5.00	7.25	8.75	7.50	14.00	3.75	5.50	-0.215332	0.134766	0.970215	-1.400000	5.950000	-2.310000	806.00	0.090267	-0.137536	1.25	0.75	1.25	1.25	0.00	0.00	0.00	0.00	0.00	0.00	0.00	0.00	0.00	0.00	0.00	0.00	-2.199219	0.370605	0.113281	18.059999	106.889999	21.000000	48.00	0.000000	0.000000
0.84	2.00	3.25	4.00	4.00	2.75	4.75	0.00	5.50	0.25	5.00	7.75	9.00	7.75	15.25	3.75	5.50	-0.222656	0.133301	0.974609	-1.330000	6.860000	-2.590000	803.00	0.106264	-0.133884	1.75	1.00	1.75	1.25	0.00	0.00	0.00	0.00	0.00	0.00	0.00	0.00	0.00	0.00	0.00	0.00	0.078125	0.312988	1.318359	19.180000	148.190002	28.559999	61.00	-0.334714	-0.014825
0.85	1.25	2.00	3.00	3.00	2.75	4.50	0.00	5.25	0.50	5.25	7.75	9.00	7.75	16.00	3.50	5.50	-0.235352	0.146973	0.972168	-1.120000	7.980000	-2.800000	764.00	0.134529	-0.131192	3.00	3.75	2.75	2.25	0.00	0.00	0.00	0.00	0.00	0.00	0.00	0.00	0.00	0.00	0.00	0.00	-0.136230	0.296875	1.453613	-10.640000	118.160004	24.639999	121.00	-0.348565	-0.042729
0.86	1.25	1.75	2.25	2.50	2.25	3.50	0.00	5.00	0.75	5.50	8.25	9.00	7.75	16.75	4.25	5.75	-0.222168	0.139648	0.972656	-0.980000	9.240000	-3.220000	755.00	0.157624	-0.125561	3.75	5.25	4.00	3.75	0.25	0.00	0.00	0.00	0.00	0.00	0.00	0.00	0.00	0.00	0.00	0.00	-0.021973	-0.032715	0.793945	-24.150000	97.370003	18.480000	176.00	-0.340546	-0.050689
0.87	0.75	1.25	1.75	1.75	2.25	2.75	0.00	4.75	0.75	5.75	8.25	9.25	7.75	17.25	4.00	5.50	-0.214844	0.145020	0.975586	-0.700000	10.710000	-3.500000	725.00	0.178662	-0.122409	5.50	6.00	5.50	5.50	0.25	0.00	0.00	0.00	0.00	0.00	0.00	0.00	0.00	0.00	0.00	0.00	-2.067871	-0.567383	2.559570	-40.810001	121.379997	0.280000	237.00	-0.337971	-0.046074
0.88	0.25	1.00	1.50	1.50	1.75	1.50	0.00	4.25	0.75	6.25	8.25	9.25	7.50	17.75	4.00	5.50	-0.183105	0.138184	0.994629	-0.770000	14.420000	-5.600000	692.00	0.201570	-0.115672	7.25	7.50	8.00	7.25	0.50	0.50	0.00	0.00	0.00	0.00	0.00	0.00	0.00	0.00	0.00	0.00	-0.253418	-0.079590	1.183105	29.049999	16.379999	10.010000	324.00	-0.330830	-0.044368
0.89	0.25	0.75	1.00	0.75	1.25	1.25	0.00	3.75	0.75	6.25	8.50	9.00	7.50	19.00	4.00	5.50	-0.227539	0.148438	0.989258	-0.490000	17.920000	-8.050000	671.00	0.223534	-0.108186	8.75	8.00	9.50	7.50	1.00	1.00	0.00	0.25	0.00	0.00	0.00	0.00	0.00	0.50	0.00	0.00	-0.177734	0.296387	0.831543	8.680000	-6.650000	-3.150000	382.00	-0.314703	-0.037776
0.90	0.25	0.50	0.75	0.25	1.00	0.75	0.00	3.00	1.00	6.25	8.50	8.50	7.00	19.00	4.00	5.00	-0.192871	0.118164	1.031250	3.850000	30.520000	-8.120000	632.00	0.241568	-0.095174	8.50	7.75	9.50	7.50	1.25	1.25	0.00	0.25	0.00	0.00	0.00	0.00	0.00	2.25	0.25	0.25	-0.230469	0.227051	1.226562	10.220000	18.410000	1.750000	402.00	-0.277181	-0.032134
0.91	0.25	0.25	0.75	0.25	0.75	0.50	0.00	2.50	1.25	6.50	8.50	9.00	6.25	19.50	3.75	5.25	-0.236816	0.128418	1.063965	9.240000	41.230000	-9.240000	624.00	0.251673	-0.085154	8.00	7.25	9.00	7.25	1.75	1.25	0.00	0.25	0.00	0.00	0.25	0.25	0.25	2.75	0.25	0.25	-0.221680	0.029297	0.917480	6.650000	20.160000	1.330000	401.00	-0.255744	-0.033878
0.92	0.00	0.25	0.50	0.50	0.50	0.25	0.00	2.00	1.25	6.50	8.50	9.00	5.75	19.50	3.75	4.75	-0.226562	0.156250	1.087402	11.340000	54.389999	-10.710000	601.00	0.261423	-0.079628	7.75	7.25	8.75	7.25	2.00	1.50	0.00	0.25	0.00	0.25	0.25	0.50	0.25	3.25	0.50	0.50	-0.215820	0.098145	0.953613	12.110000	15.050000	0.700000	415.00	-0.234051	-0.036640
0.93	0.25	0.00	0.50	0.50	0.50	0.25	0.00	1.50	1.25	6.50	8.00	8.25	5.00	19.25	3.75	4.25	-0.250488	0.127441	1.085938	9.590000	69.510002	-11.340000	569.00	0.265899	-0.066400	7.50	6.75	9.00	7.25	2.25	2.00	0.00	0.25	0.00	0.75	0.50	0.50	0.25	3.75	0.50	1.25	-0.249512	0.122070	0.958984	16.309999	16.660000	1.890000	434.00	-0.209229	-0.037439
0.94	0.25	0.25	0.25	0.25	0.00	0.00	0.00	1.00	1.75	6.25	7.75	7.75	4.50	18.75	3.50	4.25	-0.274414	0.144043	1.136230	6.720000	92.889999	-13.440001	535.00	0.278351	-0.055093	7.25	6.50	9.25	7.50	3.00	2.50	0.00	0.50	0.25	0.75	0.50	0.75	0.25	4.75	0.75	1.50	-0.251953	0.107422	0.998535	16.660000	11.410000	1.610000	471.00	-0.182317	-0.038248
0.95	0.25	0.25	0.25	0.25	0.00	0.00	0.00	0.50	1.75	6.25	7.50	7.00	3.75	18.50	3.25	4.00	-0.263184	0.158691	1.172852	4.130000	100.870003	-14.000000	504.00	0.284066	-0.040831	7.50	7.00	9.50	7.75	3.50	2.75	0.00	0.50	0.00	1.00	0.75	0.75	0.50	5.00	0.75	1.75	-0.241699	0.124512	1.007324	14.490000	8.890000	1.260000	500.00	-0.178870	-0.042748
0.96	0.00	0.25	0.25	0.25	0.00	0.00	0.00	0.50	1.50	6.00	7.00	6.00	3.25	17.25	3.25	4.00	-0.302246	0.129883	1.172363	2.380000	118.650002	-16.309999	465.00	0.288846	-0.038922	7.75	7.00	10.00	8.00	3.50	3.25	0.00	1.00	0.00	1.00	1.00	1.00	0.50	6.00	0.75	2.00	-0.242676	0.113770	1.009766	11.900000	7.350000	0.980000	539.00	-0.164201	-0.047628
0.97	0.25	0.00	0.25	0.25	0.00	0.00	0.00	0.50	1.25	5.75	6.00	5.25	2.75	16.50	2.75	3.50	-0.328125	0.179199	1.083496	0.070000	132.649994	-18.129999	422.00	0.289506	-0.030298	7.75	7.00	10.00	8.25	3.75	3.75	0.00	1.25	0.25	1.25	1.00	1.00	0.75	6.50	0.75	2.00	-0.248535	0.116699	1.002930	10.220000	6.090000	0.910000	566.00	-0.153562	-0.049955
0.98	0.25	0.00	0.00	0.25	0.00	0.00	0.00	0.25	1.25	5.25	5.25	4.50	2.25	15.75	2.25	3.00	-0.330566	0.206543	1.140625	-3.150000	145.669998	-21.070000	376.00	0.297540	-0.017252	7.50	7.00	9.75	8.25	4.25	4.00	0.00	1.25	0.00	1.75	1.50	1.25	1.00	6.25	0.75	2.50	-0.244629	0.121094	1.002441	8.470000	5.600000	0.980000	581.00	-0.143823	-0.057441
0.99	0.25	0.25	0.00	0.25	0.00	0.25	0.00	0.25	1.25	4.75	4.25	3.50	1.50	14.50	2.00	2.75	-0.395996	0.233398	1.142090	-8.120000	157.289993	-25.129999	334.00	0.292629	-0.005578	7.25	6.75	9.50	8.25	4.25	4.25	0.00	1.50	0.00	2.00	1.75	1.75	1.50	6.75	0.75	2.50	-0.246094	0.119141	1.002930	6.230000	4.900000	1.120000	599.00	-0.127681	-0.064606
1.00	0.25	0.00	0.25	0.25	0.25	0.25	0.00	0.25	1.00	4.00	3.50	1.75	1.00	12.75	2.00	2.25	-0.408691	0.260742	1.085449	-8.540000	166.880005	-33.389999	278.00	0.293062	0.014835	7.50	6.75	9.25	8.00	4.25	4.50	0.00	1.75	0.00	1.75	2.00	2.00	1.50	7.00	1.00	2.75	-0.247070	0.118164	0.999512	4.340000	4.200000	0.910000	611.00	-0.120225	-0.068366
1.01	0.25	0.25	0.25	0.00	0.25	0.00	0.00	0.00	0.75	3.50	2.25	1.50	0.75	11.00	1.50	1.75	-0.408203	0.138672	1.142578	-15.610000	175.070007	-39.060001	221.00	0.299940	0.032917	7.00	6.50	9.00	8.00	4.00	5.00	0.00	2.00	0.25	1.75	2.25	2.25	2.00	6.75	1.00	2.75	-0.244629	0.119141	0.989746	4.060000	3.710000	0.980000	618.00	-0.110637	-0.077522
1.02	0.25	0.50	0.25	0.25	0.00	0.00	0.00	0.00	0.75	3.00	1.25	0.50	0.50	9.50	1.25	1.50	-0.484863	0.360840	1.256836	-20.230000	179.339996	-41.160000	179.00	0.291228	0.053178	6.75	6.75	8.75	8.00	4.25	5.25	0.00	2.00	0.25	1.75	2.50	2.25	2.00	6.50	1.25	2.75	-0.245117	0.120605	0.994141	3.570000	3.150000	1.120000	624.00	-0.108295	-0.080661
1.03	0.25	0.25	0.00	0.25	0.25	0.00	0.00	0.00	0.75	2.75	0.50	0.50	0.25	7.75	0.75	1.25	-0.468750	0.206055	1.241699	-17.360001	183.750000	-49.139999	142.00	0.294224	0.068625	6.75	6.75	8.75	7.75	4.00	5.25	0.00	2.25	0.25	2.00	2.75	2.50	2.25	6.50	1.25	3.00	-0.243652	0.125000	0.982910	2.940000	2.730000	1.120000	634.00	-0.100783	-0.084770
1.04	0.50	0.00	0.25	0.50	0.25	0.25	0.00	0.00	0.50	2.25	0.25	0.50	0.00	6.50	0.75	0.50	-0.585938	0.263672	1.219727	-30.030001	184.240005	-52.500000	123.00	0.251685	0.071474	6.75	7.00	8.50	8.00	4.00	5.25	0.00	2.50	0.25	2.00	2.50	2.75	2.50	6.25	1.25	3.25	-0.245605	0.122070	0.986816	2.380000	2.170000	1.190000	641.00	-0.101350	-0.091611
1.05	0.25	0.00	0.50	0.25	0.25	0.00	0.00	0.00	0.25	0.75	0.25	0.50	0.00	5.25	0.25	0.25	-0.608887	0.347656	0.890625	-17.360001	184.240005	-61.389999	81.00	0.255379	0.088155	6.25	6.50	8.25	8.00	4.00	5.25	0.00	2.75	0.50	2.00	2.50	2.75	2.50	6.25	1.25	3.25	-0.247559	0.121094	0.990723	2.100000	1.820000	1.190000	636.00	-0.093511	-0.093411
1.06	0.50	0.00	0.50	0.25	0.25	0.00	0.00	0.00	0.25	0.25	0.25	0.25	0.00	3.50	0.25	0.25	-0.576660	0.356445	0.926270	-12.460000	187.389999	-73.360001	61.00	0.192444	0.085827	6.00	6.25	8.00	7.75	3.75	5.50	0.00	3.00	0.50	2.00	2.75	2.75	3.00	6.00	1.25	3.25	-0.250977	0.124023	0.984863	1.820000	1.400000	1.120000	634.00	-0.087685	-0.100961
1.07	0.25	0.25	0.25	0.25	0.25	0.00	0.00	0.00	0.00	0.25	0.25	0.25	0.25	2.00	0.25	0.00	-0.666016	0.141602	1.592285	-53.549999	173.320007	-78.820000	43.00	0.000000	0.000000	6.00	6.50	8.00	8.00	4.00	5.75	0.00	3.00	0.50	2.00	3.00	2.50	3.00	6.25	1.50	3.50	-0.245117	0.123535	0.983887	1.540000	1.050000	1.050000	650.00	-0.085483	-0.100477
1.08	0.00	0.25	0.25	0.25	0.00	0.25	0.00	0.25	0.00	0.25	0.25	0.25	0.25	0.50	0.00	0.00	-0.632812	0.197754	1.097168	-100.800003	154.979996	-80.290001	29.00	0.000000	0.000000	6.25	6.75	8.25	8.00	4.00	5.75	0.00	3.25	0.50	2.00	3.50	3.00	3.25	6.25	1.75	3.50	-0.238770	0.126953	0.980957	1.470000	0.840000	0.840000	677.00	-0.080727	-0.103478
1.09	0.00	0.25	0.50	0.50	0.25	0.25	0.00	0.00	0.00	0.25	0.00	0.25	0.25	0.50	0.25	0.00	-0.514160	0.265625	0.955566	-150.430008	139.229996	-86.239998	33.00	0.000000	0.000000	6.50	6.50	8.25	8.00	4.00	5.75	0.00	3.25	0.25	2.00	3.50	3.00	3.25	6.00	1.75	3.50	-0.246582	0.126953	0.983887	1.190000	0.560000	0.770000	672.00	-0.084022	-0.105175
1.10	0.25	0.50	0.75	0.50	0.00	0.00	0.00	0.00	0.00	0.25	0.25	0.25	0.00	0.75	0.00	0.25	-0.386719	0.252441	0.899414	-168.419998	132.300003	-91.070000	37.00	0.000000	0.000000	6.50	6.50	8.25	8.00	4.00	6.00	0.00	3.50	0.25	2.25	3.25	3.50	3.25	6.25	1.75	3.50	-0.248535	0.129395	0.983887	1.050000	0.350000	0.700000	686.00	-0.080057	-0.107334
1.11	0.25	0.25	0.75	0.75	0.00	0.00	0.00	0.25	0.00	0.25	0.25	0.25	0.00	0.50	0.00	0.00	0.282715	0.488281	1.130371	-156.729996	115.150002	-97.860001	37.00	0.000000	0.000000	6.25	6.50	8.25	7.75	4.00	6.00	0.00	3.50	0.50	2.50	3.25	3.00	3.50	6.25	1.50	3.50	-0.243652	0.123047	0.984863	0.840000	0.000000	0.560000	681.00	-0.078476	-0.104961
1.12	0.25	0.25	1.00	0.75	0.00	0.25	0.00	0.25	0.00	0.00	0.00	0.00	0.00	0.25	0.00	0.00	0.062988	0.755371	1.665039	-92.750000	74.059998	-107.730003	33.00	0.000000	0.000000	6.25	6.50	8.25	8.00	4.25	6.00	0.00	3.50	0.50	2.50	3.50	3.50	3.50	6.25	1.50	3.50	-0.247559	0.125488	0.986816	0.560000	-0.210000	0.560000	694.00	-0.076160	-0.106266
1.13	0.25	0.50	1.00	1.00	0.00	0.25	0.00	0.25	0.00	0.00	0.00	0.25	0.00	0.25	0.00	0.00	0.489258	0.595703	1.618164	-7.420000	8.820000	-107.870003	41.00	0.000000	0.000000	6.25	6.50	8.25	8.25	4.25	6.25	0.00	3.50	0.50	2.50	3.50	3.50	3.50	6.75	1.75	3.50	-0.243164	0.124023	0.988281	0.490000	-0.210000	0.420000	706.00	-0.072526	-0.105568
1.14	0.25	0.50	0.75	0.75	0.00	0.25	0.00	0.25	0.00	0.00	0.00	0.25	0.00	0.25	0.00	0.00	0.395996	0.318848	1.308105	23.030001	-53.900002	-113.820000	35.00	0.000000	0.000000	6.25	6.50	8.25	8.00	4.00	6.25	0.00	3.50	0.50	2.50	3.50	3.50	3.50	6.00	1.50	3.50	-0.247559	0.131348	0.984375	0.350000	-0.420000	0.420000	692.00	-0.077768	-0.108459
1.15	0.50	0.25	0.75	0.75	0.00	0.00	0.00	0.00	0.00	0.00	0.00	0.00	0.25	0.25	0.00	0.00	0.299316	0.205078	0.954102	7.000000	-89.389999	-120.820000	28.00	0.000000	0.000000	6.25	6.50	8.50	8.00	4.25	6.00	0.00	3.75	0.50	2.50	3.50	3.50	3.75	6.25	1.50	3.75	-0.249023	0.130371	0.981445	0.350000	-0.420000	0.210000	704.00	-0.074967	-0.108527
1.16	0.25	0.25	0.75	0.75	0.00	0.00	0.00	0.00	0.00	0.00	0.00	0.25	0.25	0.50	0.00	0.00	0.184082	0.276367	0.617676	-15.610000	-108.010002	-131.809998	31.00	0.000000	0.000000	6.25	6.50	8.25	8.00	4.25	6.00	0.00	3.75	0.50	2.50	3.75	3.50	3.75	6.25	1.50	3.75	-0.245117	0.125000	0.979492	0.210000	-0.420000	0.070000	704.00	-0.073094	-0.109338
1.17	0.25	0.50	1.00	0.50	0.00	0.25	0.00	0.25	0.00	0.25	0.00	0.50	0.25	0.25	0.00	0.00	0.135254	0.355957	0.577148	-4.620000	-111.790001	-137.130005	43.00	0.000000	0.000000	6.25	6.75	8.25	8.25	3.75	6.25	0.00	3.75	0.50	2.25	3.75	3.50	4.25	6.00	1.75	3.50	-0.251953	0.125000	0.982422	0.140000	-0.210000	-0.070000	707.00	-0.075117	-0.115091
1.18	0.75	0.25	0.75	0.75	0.00	0.00	0.00	0.25	0.00	0.00	0.00	0.25	0.25	0.25	0.00	0.00	0.104004	0.395996	0.591309	15.820000	-115.010002	-139.720001	37.00	0.000000	0.000000	6.00	6.50	8.00	8.00	4.00	6.25	0.00	3.75	0.25	2.50	3.75	3.50	3.75	7.00	1.75	3.75	-0.242676	0.127930	0.979492	-0.000000	-0.140000	-0.140000	704.00	-0.066552	-0.111303
1.19	0.75	0.25	0.75	0.75	0.00	0.00	0.00	0.00	0.00	0.00	0.00	0.00	0.25	0.50	0.00	0.00	0.072266	0.420898	0.591309	35.279999	-118.020004	-138.110001	33.00	0.000000	0.000000	5.75	6.25	7.75	7.50	3.75	5.75	0.00	3.50	0.25	2.75	3.75	3.75	3.75	7.25	1.75	4.00	-0.247070	0.130371	0.982422	-0.140000	0.070000	-0.280000	688.00	-0.056394	-0.109264
1.20	0.50	0.25	0.75	0.75	0.00	0.25	0.00	0.00	0.00	0.00	0.00	0.00	0.00	0.50	0.00	0.00	0.018066	0.438965	0.603516	48.860001	-119.419998	-132.020004	31.00	0.000000	0.000000	6.00	6.25	7.75	7.25	3.75	6.00	0.00	3.75	0.50	2.75	3.75	4.00	3.75	7.00	1.75	4.00	-0.244629	0.126953	0.983398	-0.350000	0.350000	-0.350000	698.00	-0.055870	-0.109959
1.21	0.50	0.25	0.25	0.75	0.00	0.00	0.00	0.00	0.00	0.00	0.00	0.00	0.00	0.25	0.00	0.00	-0.042480	0.486816	0.627930	57.959999	-118.860001	-121.520004	21.00	0.000000	0.000000	5.75	6.00	7.50	7.25	4.00	6.00	0.00	3.75	0.50	2.75	4.00	4.00	3.75	6.75	1.75	4.00	-0.251953	0.127441	0.977051	-0.350000	0.140000	-0.210000	694.00	-0.053182	-0.111617
1.22	0.25	0.50	0.50	0.75	0.00	0.00	0.00	0.00	0.00	0.00	0.00	0.00	0.25	0.25	0.00	0.00	-0.111816	0.543457	0.668457	70.840004	-114.730003	-97.650002	25.00	0.000000	0.000000	6.25	6.25	7.50	7.00	3.75	6.00	0.00	3.75	0.50	2.50	4.00	4.00	4.00	7.25	2.00	4.00	-0.248047	0.123535	0.978516	-0.280000	0.210000	-0.140000	702.00	-0.051607	-0.110270
1.23	0.50	0.25	0.50	0.50	0.00	0.00	0.00	0.00	0.00	0.00	0.00	0.00	0.25	0.50	0.00	0.00	-0.157715	0.558105	0.709473	80.220001	-109.830002	-76.300003	25.00	0.000000	0.000000	5.75	6.00	7.25	7.00	3.75	5.75	0.00	3.75	0.50	2.50	4.25	3.50	3.75	7.25	1.75	3.75	-0.249512	0.124512	0.980957	-0.210000	-0.210000	-0.000000	680.00	-0.050665	-0.109086
1.24	0.75	0.25	0.50	0.25	0.00	0.00	0.00	0.00	0.00	0.00	0.00	0.00	0.00	0.25	0.00	0.00	-0.187012	0.551758	0.758789	90.090004	-103.459999	-52.009998	21.00	0.000000	0.000000	5.75	6.00	7.25	7.00	3.75	5.75	0.00	3.75	0.50	2.50	4.50	3.75	4.00	7.00	2.00	4.00	-0.249023	0.126953	0.978027	-0.210000	-0.560000	0.140000	690.00	-0.046807	-0.112118
1.25	0.75	0.50	0.75	0.50	0.00	0.00	0.00	0.00	0.00	0.00	0.00	0.25	0.00	0.25	0.00	0.00	-0.207520	0.521973	0.831543	100.660004	-96.879997	-26.600000	31.00	0.000000	0.000000	5.50	5.75	7.25	7.00	3.75	5.75	0.00	4.00	0.50	2.75	4.25	4.00	4.25	7.00	2.00	4.00	-0.250488	0.125977	0.984375	-0.350000	-0.840000	0.140000	693.00	-0.042365	-0.115413
1.26	0.25	0.50	0.50	0.50	0.00	0.00	0.00	0.00	0.00	0.00	0.00	0.00	0.00	0.25	0.00	0.00	-0.240723	0.452637	0.924805	111.930000	-91.840004	-2.100000	20.00	0.000000	0.000000	5.50	5.75	7.25	7.00	4.00	5.75	0.00	4.00	0.25	2.75	4.50	4.25	4.50	7.00	1.75	4.00	-0.245117	0.125977	0.979980	-0.350000	-1.050000	0.140000	698.00	-0.043176	-0.118428
1.27	0.25	0.25	0.50	0.75	0.00	0.25	0.00	0.00	0.00	0.00	0.00	0.00	0.00	0.25	0.00	0.00	-0.270996	0.360840	1.039551	121.309998	-88.550003	19.530001	24.00	0.000000	0.000000	5.25	5.75	7.00	7.25	3.75	5.75	0.00	4.00	0.25	2.75	4.50	4.25	4.50	7.25	1.75	4.25	-0.250488	0.133789	0.976562	-0.280000	-1.330000	0.070000	696.00	-0.039402	-0.120710
1.28	0.25	0.00	0.50	0.75	0.00	0.00	0.00	0.00	0.00	0.00	0.00	0.00	0.00	0.25	0.00	0.00	-0.298828	0.254395	1.133301	126.770004	-87.849998	37.799999	19.00	0.000000	0.000000	5.50	5.75	7.00	7.25	4.00	5.75	0.00	4.00	0.50	3.00	4.50	4.25	4.50	7.25	2.00	4.00	-0.251465	0.128418	0.979980	-0.420000	-1.400000	0.210000	708.00	-0.037776	-0.116150
1.29	0.25	0.25	0.75	0.75	0.00	0.00	0.00	0.00	0.00	0.00	0.00	0.00	0.00	0.00	0.00	0.00	-0.357910	0.104004	1.229492	132.649994	-90.860001	57.330002	21.00	0.000000	0.000000	5.75	6.00	7.25	7.25	4.00	6.00	0.00	4.25	0.50	2.75	4.50	4.25	4.25	7.25	2.00	4.00	-0.250000	0.128906	0.980957	-0.420000	-1.400000	0.140000	718.00	-0.043129	-0.116366
1.30	0.25	0.50	0.75	0.50	0.00	0.00	0.00	0.00	0.00	0.00	0.00	0.00	0.00	0.00	0.00	0.00	-0.404785	0.000977	1.256836	134.889999	-94.220001	64.120003	21.00	0.000000	0.000000	5.75	6.00	7.25	7.25	4.00	6.00	0.00	4.00	0.25	2.75	4.50	4.25	4.50	7.00	1.50	4.25	-0.249023	0.128418	0.973633	-0.420000	-1.470000	0.140000	707.00	-0.047982	-0.119269
1.31	0.25	0.50	0.50	0.25	0.00	0.00	0.00	0.00	0.00	0.00	0.00	0.00	0.00	0.25	0.00	0.00	-0.427734	-0.082520	1.264648	135.100006	-97.230003	65.590004	18.00	0.000000	0.000000	5.75	6.00	7.25	7.25	4.00	5.75	0.00	4.25	0.50	3.00	4.50	4.50	4.75	7.50	1.50	4.00	-0.250977	0.130859	0.979980	-0.560000	-1.400000	0.070000	721.00	-0.041440	-0.117236
1.32	0.25	0.25	0.50	0.25	0.00	0.00	0.00	0.00	0.00	0.00	0.00	0.00	0.00	0.00	0.00	0.00	-0.450684	-0.177734	1.275879	132.440002	-99.959999	62.230000	13.00	0.000000	0.000000	5.50	6.25	7.50	7.25	4.00	6.00	0.00	4.25	0.50	2.75	4.50	4.75	4.75	7.50	1.75	4.25	-0.244141	0.128906	0.981445	-0.560000	-1.330000	0.140000	731.00	-0.040349	-0.119508
1.33	0.25	0.25	0.50	0.25	0.00	0.00	0.00	0.00	0.00	0.00	0.00	0.00	0.00	0.00	0.00	0.00	-0.480469	-0.237305	1.286133	127.400002	-102.480003	54.529999	13.00	0.000000	0.000000	5.50	6.00	7.25	7.25	4.00	6.00	0.00	4.00	0.50	2.75	4.50	4.50	4.50	7.50	1.75	4.25	-0.246582	0.130371	0.979980	-0.700000	-1.260000	0.070000	717.00	-0.039961	-0.117045
1.34	0.25	0.50	0.50	0.25	0.00	0.00	0.00	0.00	0.00	0.00	0.00	0.00	0.25	0.00	0.00	0.00	-0.496094	-0.295898	1.299805	117.459999	-107.239998	38.639999	18.00	0.000000	0.000000	5.25	6.00	7.00	7.00	4.00	6.00	0.00	4.00	0.50	2.75	4.50	4.50	4.50	7.50	1.75	4.00	-0.248535	0.132812	0.979980	-0.770000	-1.260000	0.070000	707.00	-0.037552	-0.117889
1.35	0.50	0.50	0.50	0.00	0.00	0.25	0.00	0.25	0.00	0.00	0.00	0.00	0.00	0.00	0.00	0.00	-0.495117	-0.299316	1.281250	113.889999	-108.779999	33.040001	22.00	0.000000	0.000000	5.50	6.00	6.75	7.00	3.75	6.00	0.00	4.25	0.50	2.75	4.50	5.00	4.50	7.50	1.75	4.25	-0.248535	0.131348	0.974609	-0.910000	-1.120000	0.070000	715.00	-0.034945	-0.121704
1.36	0.50	0.25	0.25	0.25	0.00	0.00	0.00	0.00	0.00	0.00	0.00	0.00	0.00	0.25	0.00	0.00	-0.500488	-0.277832	1.263672	105.769997	-112.559998	16.590000	15.00	0.000000	0.000000	5.50	5.75	7.00	7.25	3.75	5.75	0.00	4.25	0.50	3.00	4.75	4.25	4.50	7.50	2.00	4.00	-0.247559	0.127441	0.975586	-0.980000	-1.120000	0.070000	714.00	-0.034995	-0.117425
1.37	0.25	0.00	0.25	0.25	0.00	0.00	0.00	0.00	0.00	0.00	0.00	0.25	0.00	0.00	0.00	0.00	-0.522461	-0.249512	1.246582	104.300003	-114.239998	7.140000	11.00	0.000000	0.000000	5.50	5.75	7.25	7.00	4.00	5.75	0.00	4.25	0.50	2.75	4.75	4.25	4.50	7.75	2.00	4.25	-0.250488	0.129883	0.974609	-1.190000	-0.910000	-0.000000	718.00	-0.034193	-0.115680
1.38	0.00	0.25	0.50	0.00	0.00	0.00	0.00	0.00	0.00	0.00	0.00	0.00	0.00	0.00	0.00	0.00	-0.541992	-0.245117	1.210938	104.720001	-113.889999	-1.260000	8.00	0.000000	0.000000	5.50	6.00	7.00	7.00	4.00	5.75	0.00	4.25	0.50	2.75	4.75	4.25	4.75	8.00	1.75	4.00	-0.244141	0.135254	0.974609	-1.260000	-0.910000	-0.070000	717.00	-0.034946	-0.116562
1.39	0.25	0.50	0.25	0.25	0.00	0.00	0.00	0.00	0.00	0.00	0.00	0.00	0.00	0.00	0.00	0.00	-0.580566	-0.263672	1.189453	105.279999	-111.860001	-9.240000	13.00	0.000000	0.000000	5.75	6.00	7.00	7.00	4.00	5.75	0.00	4.25	0.50	2.75	5.00	4.50	4.75	8.00	2.00	4.25	-0.250977	0.132324	0.979492	-1.260000	-0.980000	-0.070000	729.00	-0.032105	-0.116649
1.40	0.25	0.25	0.25	0.25	0.00	0.00	0.00	0.00	0.00	0.00	0.00	0.00	0.25	0.00	0.00	0.00	-0.622070	-0.291992	1.164062	104.720001	-108.500000	-17.780001	13.00	0.000000	0.000000	5.50	5.75	6.75	7.00	4.00	5.50	0.00	4.50	0.50	2.75	5.25	4.75	4.75	8.25	2.00	4.25	-0.248535	0.125977	0.979492	-1.400000	-0.980000	-0.070000	730.00	-0.025044	-0.118716
1.41	0.25	0.00	0.25	0.25	0.00	0.00	0.00	0.00	0.00	0.00	0.00	0.00	0.25	0.00	0.00	0.00	-0.652832	-0.290039	1.134277	102.690002	-104.860001	-26.460001	10.00	0.000000	0.000000	5.50	6.00	6.75	6.75	3.75	5.50	0.00	4.25	0.75	2.75	5.25	4.75	4.75	8.25	1.75	4.25	-0.249512	0.133789	0.981445	-1.470000	-0.980000	-0.140000	724.00	-0.025284	-0.116068
1.42	0.50	0.25	0.25	0.50	0.00	0.00	0.00	0.00	0.00	0.00	0.00	0.00	0.00	0.25	0.00	0.00	-0.667480	-0.286133	1.077148	97.650002	-97.510002	-38.360001	18.00	0.000000	0.000000	5.25	5.50	6.75	6.75	4.00	5.50	0.00	4.25	0.75	3.00	5.25	4.75	4.75	8.25	2.00	4.25	-0.252930	0.130371	0.979492	-1.540000	-1.050000	-0.070000	725.00	-0.019299	-0.115112
1.43	0.25	0.25	0.50	0.25	0.00	0.00	0.00	0.00	0.00	0.00	0.00	0.00	0.00	0.25	0.00	0.00	-0.655762	-0.276855	1.035156	94.220001	-91.279999	-44.660000	15.00	0.000000	0.000000	5.25	5.50	6.75	6.50	3.75	5.50	0.00	4.50	0.50	3.25	4.75	5.00	4.75	8.50	2.00	4.25	-0.250000	0.130371	0.978027	-1.400000	-0.980000	-0.140000	722.00	-0.017827	-0.117735
1.44	0.25	0.00	0.25	0.00	0.00	0.00	0.00	0.00	0.00	0.00	0.00	0.00	0.00	0.00	0.00	0.00	-0.645020	-0.296387	0.988281	90.019997	-83.370003	-50.330002	5.00	0.000000	0.000000	5.00	5.50	6.75	6.50	3.75	5.75	0.00	4.25	0.75	3.00	5.25	5.25	5.25	8.75	2.25	4.25	-0.244141	0.130859	0.981445	-1.610000	-0.980000	-0.210000	736.00	-0.010277	-0.118254
1.45	0.25	0.25	0.25	0.25	0.00	0.00	0.00	0.00	0.00	0.00	0.00	0.00	0.00	0.00	0.00	0.00	-0.629883	-0.323242	0.957520	83.720001	-73.989998	-55.439999	10.00	0.000000	0.000000	5.00	5.75	6.50	6.75	3.75	5.50	0.00	4.25	0.75	3.00	5.50	5.25	5.00	8.50	2.25	4.25	-0.249512	0.126465	0.979004	-1.610000	-0.980000	-0.210000	734.00	-0.012007	-0.118855
1.46	0.25	0.00	0.25	0.25	0.00	0.00	0.00	0.00	0.00	0.00	0.00	0.00	0.00	0.00	0.00	0.00	-0.627441	-0.341797	0.922852	76.930000	-64.120003	-60.340000	8.00	0.000000	0.000000	4.50	5.50	6.25	6.50	3.75	5.50	0.00	4.50	0.50	3.00	5.50	5.25	5.00	8.75	2.00	4.50	-0.250000	0.131836	0.971680	-1.680000	-0.840000	-0.420000	722.00	-0.006679	-0.123584
1.47	0.00	0.00	0.25	0.00	0.00	0.00	0.00	0.00	0.00	0.00	0.00	0.00	0.00	0.00	0.00	0.00	-0.618164	-0.365723	0.902832	70.209999	-54.180000	-65.590004	3.00	0.000000	0.000000	5.00	5.25	6.25	6.25	3.75	5.50	0.00	4.50	0.50	3.25	5.75	5.00	5.25	9.00	2.00	4.50	-0.248047	0.127930	0.979492	-1.610000	-0.700000	-0.210000	729.00	-0.004454	-0.120226
1.48	0.00	0.25	0.25	0.00	0.00	0.00	0.00	0.00	0.00	0.00	0.00	0.25	0.00	0.00	0.00	0.00	-0.622070	-0.382324	0.906738	62.860001	-45.009998	-70.910004	8.00	0.000000	0.000000	5.25	5.25	6.25	6.25	4.00	5.50	0.00	4.25	0.75	3.50	5.75	5.25	5.25	9.50	2.00	4.25	-0.247559	0.124512	0.974121	-1.540000	-0.700000	-0.350000	742.00	-0.001761	-0.113536
1.49	0.25	0.25	0.25	0.25	0.00	0.00	0.00	0.00	0.00	0.00	0.00	0.00	0.00	0.00	0.00	0.00	-0.622559	-0.387695	0.920410	51.730000	-34.580002	-78.330002	10.00	0.000000	0.000000	4.00	5.50	6.00	6.25	3.75	5.50	0.00	4.50	0.75	3.50	5.75	5.50	5.50	9.50	2.25	4.50	-0.255859	0.126953	0.979980	-1.330000	-0.350000	-0.490000	738.00	0.008758	-0.122376
1.50	0.25	0.25	0.50	0.25	0.00	0.00	0.00	0.00	0.00	0.00	0.00	0.00	0.00	0.25	0.00	0.00	-0.626465	-0.387695	0.911621	43.610001	-29.330000	-82.180000	15.00	0.000000	0.000000	4.50	5.50	5.75	6.25	3.75	5.25	0.00	4.50	0.50	3.50	5.50	5.75	5.75	10.00	2.25	4.75	-0.244629	0.131348	0.981445	-1.190000	-0.280000	-0.280000	743.00	0.009788	-0.123013
1.51	0.00	0.25	0.25	0.25	0.00	0.00	0.00	0.00	0.00	0.00	0.00	0.00	0.00	0.00	0.00	0.00	-0.624023	-0.380371	0.879395	33.529999	-24.710001	-85.540001	8.00	0.000000	0.000000	4.00	5.00	5.25	6.00	3.75	5.25	0.00	4.50	0.50	3.75	6.00	5.75	6.00	10.50	2.25	4.50	-0.246582	0.129395	0.972656	-0.770000	0.140000	-0.420000	737.00	0.023039	-0.123797
1.52	0.00	0.00	0.00	0.50	0.00	0.00	0.00	0.00	0.00	0.00	0.00	0.00	0.00	0.00	0.00	0.00	-0.613281	-0.363770	0.846191	23.450001	-19.250000	-88.340004	5.00	0.000000	0.000000	3.50	5.00	5.50	5.75	3.25	5.25	0.00	4.50	0.75	3.50	6.25	5.75	6.00	10.50	2.25	4.50	-0.248535	0.131348	0.985352	-0.770000	0.700000	-0.560000	730.00	0.028237	-0.124500
1.53	0.25	0.00	0.25	0.25	0.00	0.00	0.00	0.00	0.00	0.00	0.00	0.00	0.00	0.00	0.00	0.00	-0.595703	-0.345703	0.809082	15.190001	-12.390000	-90.160004	8.00	0.000000	0.000000	3.50	4.75	5.25	5.25	3.25	5.00	0.00	4.50	1.00	3.75	6.50	6.25	6.00	10.50	2.25	4.75	-0.250488	0.132324	0.972656	-0.770000	1.050000	-0.700000	732.00	0.038186	-0.122979
1.54	0.50	0.25	0.50	0.25	0.00	0.00	0.00	0.00	0.00	0.00	0.00	0.25	0.00	0.00	0.00	0.00	-0.583984	-0.303711	0.788086	9.800000	-5.320000	-90.790001	18.00	0.000000	0.000000	3.25	5.00	4.25	5.25	3.25	5.00	0.00	4.50	0.50	4.25	6.75	6.50	5.75	11.25	2.50	4.75	-0.255371	0.132812	0.983398	-0.770000	1.400000	-0.910000	731.00	0.047936	-0.126224
1.55	0.25	0.25	0.75	0.50	0.00	0.00	0.00	0.00	0.00	0.00	0.00	0.00	0.00	0.00	0.00	0.00	-0.569336	-0.276855	0.776367	7.420000	1.820000	-89.739998	19.00	0.000000	0.000000	3.25	4.50	4.25	5.00	3.00	4.75	0.00	4.50	0.50	4.25	7.00	6.50	6.00	11.50	2.50	4.50	-0.249512	0.134277	0.976074	-0.840000	1.680000	-1.050000	724.00	0.055066	-0.125478
1.56	0.25	0.25	0.50	0.25	0.00	0.00	0.00	0.00	0.00	0.00	0.00	0.00	0.00	0.00	0.00	0.00	-0.538086	-0.246094	0.762695	3.500000	12.670000	-83.370003	13.00	0.000000	0.000000	3.50	4.50	4.00	5.00	3.00	4.50	0.00	4.25	1.00	4.50	7.00	6.50	6.25	11.25	2.50	4.75	-0.253418	0.133301	0.975098	-0.840000	2.310000	-1.260000	728.00	0.058130	-0.121491
1.57	0.50	0.50	0.50	0.25	0.00	0.00	0.00	0.00	0.00	0.25	0.00	0.00	0.00	0.00	0.00	0.00	-0.494141	-0.221191	0.751953	-3.710000	20.580000	-77.349998	21.00	0.000000	0.000000	3.00	3.75	3.25	4.00	2.50	4.50	0.00	4.25	1.00	4.50	7.25	6.50	6.25	11.75	3.00	5.00	-0.249512	0.132324	0.983887	-0.980000	2.660000	-1.470000	704.00	0.082798	-0.123314
1.58	0.25	0.00	0.25	0.25	0.00	0.00	0.00	0.00	0.00	0.25	0.00	0.00	0.00	0.00	0.00	0.00	-0.459473	-0.154785	0.755859	-9.870000	28.420000	-69.019997	11.00	0.000000	0.000000	2.00	3.00	3.25	3.50	2.50	4.25	0.00	4.25	1.25	5.00	7.75	6.50	6.50	12.00	3.00	5.00	-0.247559	0.138184	0.978027	-1.260000	3.360000	-1.960000	697.00	0.103145	-0.121767
1.59	0.25	0.00	0.25	0.25	0.00	0.00	0.00	0.00	0.00	0.25	0.00	0.00	0.00	0.00	0.00	0.00	-0.426270	-0.107910	0.736328	-13.230000	36.119999	-58.029999	11.00	0.000000	0.000000	1.50	3.00	2.75	3.00	2.25	3.75	0.00	4.25	1.50	5.25	8.50	6.75	6.25	13.00	3.25	5.00	-0.259766	0.127441	0.977051	-1.610000	4.480000	-2.520000	698.00	0.123538	-0.117080
1.60	0.00	0.25	0.25	0.25	0.25	0.00	0.00	0.00	0.00	0.00	0.00	0.00	0.00	0.00	0.00	0.00	-0.311523	0.041016	0.518066	-17.430000	44.170002	-45.500000	11.00	0.000000	0.000000	1.75	1.75	2.50	2.75	2.00	3.50	0.00	4.00	1.75	5.50	8.75	7.00	6.25	13.75	3.25	4.75	-0.253418	0.129395	0.983887	-1.750000	5.250000	-3.220000	690.00	0.140599	-0.109427
1.61	0.00	0.00	0.50	0.50	0.00	0.00	0.00	0.00	0.00	0.00	0.00	0.00	0.00	0.00	0.00	0.00	-0.416504	0.144043	1.135254	-193.479996	6.230000	-32.619999	11.00	0.000000	0.000000	1.50	1.75	2.25	2.75	2.00	3.00	0.00	4.00	2.00	6.00	8.75	7.25	6.50	14.25	3.25	5.25	-0.257812	0.131348	0.976074	-1.820000	6.160000	-3.850000	700.00	0.150641	-0.107510
1.62	0.00	0.25	0.25	0.25	0.00	0.00	0.00	0.00	0.00	0.25	0.00	0.00	0.00	0.00	0.00	0.00	-0.364258	0.068848	0.941895	-135.169998	-0.630000	-17.430000	10.00	0.000000	0.000000	1.50	2.25	2.25	2.25	1.75	2.75	0.00	3.75	2.25	6.25	8.75	8.00	6.50	14.50	3.00	5.25	-0.254883	0.133789	0.981445	-1.890000	7.980000	-4.760000	703.00	0.154768	-0.104393
1.63	0.25	0.25	0.25	0.50	0.00	0.00	0.00	0.00	0.00	0.25	0.00	0.25	0.00	0.00	0.00	0.00	-0.365234	0.733887	1.083008	-141.190002	-13.440001	-5.600000	18.00	0.000000	0.000000	0.50	1.50	2.00	2.00	1.50	2.25	0.00	3.50	2.50	7.00	9.00	7.75	6.75	14.75	3.00	5.25	-0.256836	0.135254	0.985840	-1.400000	9.380000	-5.530000	683.00	0.179373	-0.100856
1.64	0.50	0.50	0.75	1.00	0.00	0.25	0.00	0.00	0.00	0.00	0.00	0.50	0.00	0.00	0.00	0.00	0.272949	0.060059	0.696777	-141.820007	11.060000	-27.860001	37.00	0.000000	0.000000	0.50	0.50	1.75	1.75	1.25	2.00	0.00	3.50	2.75	7.00	9.00	7.50	6.75	15.75	3.00	5.25	-0.253906	0.123047	0.983887	-0.700000	10.780000	-6.090000	672.00	0.197100	-0.094094
1.65	0.75	1.00	1.00	2.25	0.00	0.25	0.00	0.25	0.00	0.00	0.00	0.25	0.00	0.00	0.00	0.00	-0.084961	0.223145	0.626953	-158.619995	14.770000	-43.470001	62.00	-0.273307	-0.133139	0.25	0.25	1.50	1.50	1.25	1.75	0.00	3.25	2.75	7.50	9.25	7.50	6.50	16.25	3.00	5.50	-0.255371	0.139648	0.982910	-0.210000	12.460000	-6.650000	667.00	0.210353	-0.088804
1.66	1.00	2.25	1.50	3.25	0.00	0.50	0.00	0.50	0.00	0.00	0.00	0.25	0.25	0.00	0.00	0.00	-0.316406	0.078613	1.042969	-175.979996	29.820000	-42.630001	101.00	-0.271520	-0.148887	0.25	0.25	1.00	1.25	1.00	1.75	0.00	3.00	2.75	7.75	9.50	7.75	6.25	16.50	3.00	5.25	-0.260742	0.124512	0.993652	0.630000	14.980000	-7.630000	658.00	0.219799	-0.086401
1.67	2.75	3.75	3.50	5.25	0.25	0.75	0.00	0.50	0.00	0.00	0.00	0.25	0.50	0.25	0.00	0.00	-0.472656	0.807129	-0.529297	-14.000000	-16.030001	-8.260000	187.00	-0.279391	-0.104374	0.50	0.25	1.25	1.50	0.75	1.00	0.00	2.75	3.00	8.00	10.00	7.50	6.50	16.75	3.25	5.25	-0.250977	0.118652	1.016602	2.100000	21.420000	-6.510000	667.00	0.222117	-0.079470
1.68	4.50	4.75	5.00	6.25	0.25	1.75	0.00	0.75	0.00	0.00	0.00	0.25	0.75	0.25	0.00	0.25	-0.153809	0.226074	0.781250	10.780000	-5.600000	0.910000	260.00	-0.276030	-0.099661	0.25	0.25	1.00	0.75	0.75	0.75	0.00	2.25	3.00	8.00	10.00	8.00	5.75	17.00	3.00	5.00	-0.266602	0.132812	1.007812	4.200000	30.030001	-5.670000	640.00	0.237686	-0.071098
1.69	5.00	5.00	5.75	7.25	0.25	2.00	0.00	1.00	0.00	0.00	0.00	0.25	0.50	0.25	0.00	0.50	-0.147461	0.105957	0.946289	8.120000	5.810000	2.660000	293.00	-0.275279	-0.099509	0.50	0.25	0.75	0.50	0.50	0.25	0.00	1.75	3.25	7.75	9.75	7.50	5.50	17.25	3.00	4.75	-0.268555	0.161621	1.053223	5.180000	37.520000	-7.350000	613.00	0.248797	-0.059017
1.70	4.50	5.00	5.25	6.25	0.25	2.00	0.00	1.00	0.00	0.25	0.00	0.00	0.50	0.25	0.00	0.50	-0.283203	0.072754	1.051270	4.830000	7.980000	0.350000	271.00	-0.272308	-0.098827	0.50	0.25	0.25	0.75	0.25	0.00	0.00	1.50	3.25	8.00	10.00	7.25	5.25	17.75	3.00	4.75	-0.264648	0.137207	1.050781	7.420000	48.160000	-9.520000	605.00	0.257739	-0.054209
1.71	3.75	4.00	4.00	5.25	0.25	1.75	0.00	0.75	0.00	0.00	0.00	0.25	0.50	0.50	0.00	1.25	-0.203125	0.106934	0.954102	3.920000	6.860000	1.540000	229.00	-0.250136	-0.107005	0.25	0.25	0.25	0.25	0.00	0.00	0.00	1.25	4.00	8.00	9.75	7.25	4.50	18.25	3.00	4.50	-0.306152	0.157227	1.065918	7.840000	59.360001	-11.130000	594.00	0.271105	-0.039304
1.72	2.25	3.25	3.25	4.50	0.50	1.50	0.00	0.75	0.00	0.25	0.25	0.50	0.75	1.00	0.00	1.25	-0.204590	0.107422	0.961426	4.970000	7.420000	1.330000	204.00	-0.193853	-0.118428	0.25	0.25	0.25	0.00	0.00	0.00	0.00	0.75	4.00	8.00	9.50	6.50	4.25	17.75	2.75	4.25	-0.299316	0.132324	1.088379	4.620000	69.930000	-12.180000	563.00	0.277236	-0.028826
1.73	1.75	2.75	3.25	4.50	0.50	1.50	0.00	1.00	0.00	0.50	0.25	0.75	0.75	1.75	0.00	1.50	-0.235352	0.096680	0.986816	5.530000	6.860000	1.260000	211.00	-0.148357	-0.120148	0.25	0.25	0.25	0.00	0.25	0.00	0.00	0.50	3.75	7.75	8.75	6.00	3.75	17.50	2.50	4.25	-0.341797	0.120117	1.076172	-1.120000	83.370003	-11.970000	534.00	0.278673	-0.021212
1.74	2.00	3.00	3.00	4.50	0.50	1.75	0.00	1.00	0.00	0.25	0.00	1.00	0.75	1.50	0.25	1.75	-0.234375	0.109863	0.965332	4.760000	5.460000	1.120000	216.00	-0.153230	-0.130642	0.25	0.25	0.25	0.25	0.25	0.25	0.00	0.25	4.25	7.50	8.25	5.25	3.25	17.75	2.75	4.25	-0.340332	0.121582	1.036133	-4.550000	90.230003	-11.200000	526.00	0.279198	-0.008451
1.75	1.75	3.25	3.00	4.00	0.50	1.75	0.00	1.00	0.00	0.25	0.00	1.00	1.00	2.00	0.00	2.00	-0.214844	0.113281	0.974121	4.690000	3.780000	1.120000	215.00	-0.138767	-0.130479	0.25	0.25	0.50	0.25	0.25	0.00	0.00	0.25	4.00	7.50	8.25	5.00	3.00	17.25	2.75	4.00	-0.357422	0.105957	1.039551	-5.530000	97.160004	-10.780000	513.00	0.278179	-0.005665
1.76	2.25	3.00	3.50	4.00	0.50	1.75	0.00	1.25	0.00	0.50	0.25	1.00	1.25	2.50	0.00	2.00	-0.226074	0.106934	0.975586	4.410000	2.170000	0.630000	239.00	-0.122014	-0.119213	0.25	0.50	0.25	0.00	0.00	0.25	0.00	0.00	4.00	7.50	7.75	4.75	2.50	17.00	2.75	4.00	-0.355957	0.150879	1.035645	-7.140000	103.459999	-10.430000	491.00	0.284595	0.001360
1.77	2.50	3.00	3.75	4.50	0.75	1.75	0.00	1.25	0.00	0.50	0.50	1.25	1.25	2.50	0.00	2.25	-0.224121	0.110840	0.975098	4.200000	1.540000	0.420000	259.00	-0.120497	-0.117793	0.25	0.75	0.00	0.25	0.00	0.00	0.00	0.00	4.25	7.25	7.50	4.00	2.00	17.00	2.75	4.00	-0.382324	0.149414	1.016602	-8.330000	109.760002	-11.410000	477.00	0.286333	0.011615
1.78	2.75	3.75	4.50	5.25	0.75	2.00	0.00	1.25	0.00	0.75	0.75	1.50	1.25	2.50	0.25	2.50	-0.217285	0.108887	0.972656	4.130000	1.470000	0.420000	300.00	-0.122823	-0.116060	0.25	0.25	0.00	0.25	0.00	0.25	0.00	0.00	4.00	7.00	7.00	3.75	2.00	17.00	2.50	4.00	-0.400879	0.143066	0.983887	-10.080000	115.639999	-13.160000	458.00	0.291715	0.013304
1.79	3.00	3.75	4.75	5.50	1.25	2.75	0.00	1.50	0.00	0.25	0.75	1.50	1.25	3.25	0.50	2.50	-0.223145	0.111328	0.972656	4.130000	1.680000	0.420000	329.00	-0.118213	-0.114450	0.25	0.25	0.25	0.25	0.00	0.25	0.00	0.00	4.00	7.00	6.25	3.50	2.00	16.50	2.50	3.75	-0.431152	0.166504	0.981445	-12.460000	123.129997	-16.170000	445.00	0.288517	0.017316
1.80	3.25	3.75	4.50	5.50	1.25	2.75	0.00	1.50	0.00	0.25	0.75	1.25	1.75	3.25	0.50	2.50	-0.220215	0.119629	0.974121	4.130000	1.820000	0.630000	331.00	-0.118036	-0.117529	0.25	0.25	0.50	0.00	0.00	0.00	0.00	0.00	3.75	7.00	6.25	3.00	1.50	15.50	2.50	3.50	-0.493652	0.208008	0.973145	-13.440001	128.869995	-20.370001	420.00	0.291201	0.025952
1.81	3.25	4.00	4.75	5.50	1.00	2.75	0.00	1.75	0.00	0.75	0.75	1.25	2.00	3.50	0.50	2.50	-0.215332	0.118652	0.972168	4.200000	2.030000	0.770000	346.00	-0.109545	-0.118232	0.00	0.00	0.25	0.00	0.00	0.00	0.00	0.00	3.50	6.75	5.75	2.75	1.50	15.25	2.00	3.25	-0.476074	0.153809	1.025391	-15.260000	135.029999	-25.340000	390.00	0.303586	0.029644
1.82	3.25	3.75	4.75	6.00	1.25	3.25	0.00	1.75	0.00	0.25	0.50	1.50	1.75	3.50	0.00	2.50	-0.220215	0.119141	0.965820	4.270000	2.170000	1.050000	345.00	-0.126150	-0.123128	0.00	0.25	0.25	0.00	0.00	0.00	0.00	0.00	3.25	6.25	5.25	2.25	1.25	14.00	2.00	2.75	-0.481445	0.108398	1.125488	-21.490000	138.039993	-25.900000	357.00	0.299988	0.033762
1.83	2.75	4.25	5.25	6.25	1.25	3.50	0.00	2.00	0.00	0.25	0.50	2.00	2.00	4.00	0.25	3.00	-0.218262	0.125000	0.969727	4.550000	2.030000	1.190000	376.00	-0.108442	-0.130284	0.00	0.25	0.00	0.00	0.00	0.25	0.00	0.00	3.25	6.25	4.75	1.50	1.00	13.00	2.00	2.75	-0.509766	0.162598	1.054199	-21.139999	148.119995	-27.860001	333.00	0.302367	0.040511
1.84	3.50	4.50	5.50	7.00	1.75	3.75	0.00	2.25	0.00	0.50	0.75	2.00	2.25	4.00	0.50	3.25	-0.223633	0.123047	0.968262	4.830000	1.820000	1.400000	421.00	-0.109338	-0.127958	0.00	0.25	0.00	0.00	0.00	0.00	0.00	0.00	3.25	6.25	4.50	2.00	0.75	12.00	1.75	2.50	-0.534180	0.186035	1.112305	-22.960001	160.089996	-30.799999	319.00	0.302118	0.041169
1.85	4.00	5.00	5.50	7.25	1.75	4.25	0.00	2.50	0.00	0.75	1.25	2.25	2.50	4.25	0.50	2.75	-0.219238	0.116699	0.968262	5.180000	1.470000	1.400000	455.00	-0.107905	-0.128963	0.00	0.25	0.00	0.00	0.00	0.00	0.00	0.00	2.75	5.50	3.75	1.00	0.75	11.50	1.75	2.25	-0.571777	0.106445	1.104980	-24.639999	168.839996	-34.299999	280.00	0.308663	0.051831
1.86	5.00	5.25	6.50	7.50	2.00	5.00	0.00	2.75	0.00	0.25	1.00	2.25	2.75	4.25	0.50	3.25	-0.221680	0.112305	0.969727	5.390000	0.980000	1.750000	493.00	-0.121855	-0.127671	0.00	0.25	0.00	0.00	0.00	0.00	0.00	0.00	2.75	4.75	3.00	0.50	0.75	10.25	1.50	1.75	-0.594238	0.072754	1.227539	-32.480000	176.539993	-35.209999	243.00	0.309519	0.064419
1.87	4.75	5.50	7.00	8.00	2.00	5.25	0.00	2.75	0.00	0.25	1.00	2.75	3.00	4.50	0.50	3.25	-0.213867	0.124512	0.975586	5.390000	0.630000	1.680000	516.00	-0.118430	-0.130337	0.00	0.00	0.25	0.00	0.00	0.00	0.00	0.00	2.25	4.00	2.25	0.50	0.50	9.00	1.50	1.75	-0.596680	0.189941	1.110840	-30.940001	185.430008	-32.830002	209.00	0.313388	0.067188
1.88	5.00	5.75	7.25	8.50	2.25	6.00	0.00	3.25	0.00	0.50	2.00	3.00	3.00	5.00	0.75	3.50	-0.229004	0.122559	0.968750	5.600000	0.140000	1.680000	572.00	-0.105404	-0.131364	0.00	0.00	0.00	0.00	0.00	0.00	0.00	0.00	2.00	3.25	1.50	0.50	0.50	7.50	1.25	1.50	-0.669922	-0.013184	1.134277	-30.940001	201.389999	-34.439999	170.00	0.322025	0.068487
1.89	5.50	6.00	7.50	9.50	2.50	6.50	0.00	3.75	0.00	1.00	2.00	3.00	3.25	5.25	0.25	3.75	-0.224609	0.119629	0.975098	5.950000	-0.770000	1.890000	614.00	-0.110079	-0.133023	0.00	0.00	0.00	0.00	0.00	0.25	0.00	0.00	2.00	2.50	0.75	0.25	0.50	6.50	1.25	1.00	-0.810059	0.067383	1.205078	-32.130001	205.380005	-32.480000	144.00	0.318728	0.079802
1.90	5.50	6.25	8.00	10.00	2.50	7.00	0.00	4.25	0.00	1.00	1.75	2.75	3.50	5.25	0.25	3.50	-0.215332	0.124023	0.973633	5.600000	-0.910000	2.030000	636.00	-0.116028	-0.136408	0.00	0.00	0.25	0.00	0.00	0.25	0.00	0.00	1.50	2.00	0.25	0.00	0.50	4.75	1.00	1.00	-0.769043	0.122559	1.436523	3.290000	198.449997	-29.820000	109.00	0.303391	0.078130
1.91	6.00	6.25	8.50	10.75	2.75	7.75	0.00	4.75	0.00	1.00	1.75	3.00	3.75	5.50	0.50	3.75	-0.220215	0.125488	0.970703	5.320000	-1.260000	2.100000	685.00	-0.114040	-0.138259	0.00	0.00	0.25	0.00	0.00	0.25	0.00	0.00	1.00	1.50	0.25	0.00	0.25	3.50	0.75	0.50	-0.798828	0.084473	1.232910	-14.630000	197.539993	-31.780001	79.00	0.294951	0.082990
1.92	6.50	6.50	8.50	11.00	3.00	8.25	0.00	4.75	0.00	1.00	2.00	3.25	4.00	5.50	0.50	4.25	-0.220215	0.127930	0.972168	4.970000	-1.190000	2.030000	713.00	-0.113008	-0.139297	0.00	0.00	0.25	0.25	0.00	0.00	0.00	0.00	0.50	0.50	0.25	0.25	0.25	1.50	0.75	0.25	-0.734375	0.150391	1.246094	-34.509998	191.869995	-32.340000	47.00	0.000000	0.000000
1.93	6.25	6.75	8.50	11.75	3.25	8.25	0.00	5.25	0.00	1.25	2.50	3.25	4.25	5.50	0.25	4.50	-0.218750	0.131836	0.979004	4.550000	-1.050000	2.030000	740.00	-0.110403	-0.143638	0.00	0.00	0.25	0.25	0.00	0.00	0.00	0.00	0.25	0.50	0.25	0.25	0.25	0.75	0.25	0.25	-0.729492	0.045898	1.075684	-56.070000	179.130005	-37.380001	32.00	0.000000	0.000000
1.94	6.25	6.75	9.00	11.50	3.00	8.75	0.00	5.50	0.00	1.25	2.75	3.25	4.75	5.75	0.50	4.50	-0.212891	0.134277	0.976074	4.340000	-0.910000	1.960000	761.00	-0.104656	-0.145145	0.00	0.00	0.50	0.25	0.00	0.00	0.00	0.00	0.25	0.25	0.25	0.25	0.25	0.50	0.00	0.25	-0.584961	0.112305	0.847656	-72.870003	178.149994	-40.180000	27.00	0.000000	0.000000
1.95	6.25	6.75	9.00	11.75	3.25	9.00	0.00	5.50	0.00	1.50	2.50	3.50	4.75	6.00	0.75	4.25	-0.212891	0.133789	0.972168	3.850000	-0.840000	1.680000	776.00	-0.102094	-0.143659	0.25	0.00	0.50	0.50	0.00	0.00	0.00	0.00	0.00	0.25	0.25	0.00	0.00	0.50	0.00	0.00	-0.744141	0.099121	0.849609	-98.000000	166.180008	-43.820000	23.00	0.000000	0.000000
1.96	6.00	6.75	9.00	11.75	3.00	9.25	0.00	5.75	0.00	1.50	2.50	4.00	5.00	6.00	0.75	4.50	-0.213379	0.138184	0.974121	3.430000	-0.280000	1.190000	786.00	-0.097126	-0.149045	0.25	0.00	0.75	0.50	0.00	0.00	0.00	0.00	0.00	0.25	0.00	0.00	0.00	0.50	0.00	0.00	0.157227	0.133789	0.895996	-124.529999	146.789993	-42.910000	23.00	0.000000	0.000000
1.97	6.25	6.75	8.75	11.50	3.25	9.25	0.25	6.00	0.00	1.50	3.25	3.75	5.00	6.00	1.00	4.75	-0.220703	0.132812	0.978027	2.940000	-0.000000	1.050000	802.00	-0.091145	-0.146620	0.25	0.00	0.75	0.25	0.25	0.00	0.00	0.00	0.00	0.00	0.00	0.00	0.00	0.00	0.00	0.00	0.093262	0.460938	1.285645	-116.129997	102.269997	-42.560001	16.00	0.000000	0.000000
1.98	6.25	6.75	8.75	11.25	3.25	9.25	0.00	6.00	0.00	1.50	3.25	4.75	5.50	6.00	0.50	4.75	-0.218750	0.138184	0.970703	2.800000	0.280000	0.910000	805.00	-0.089214	-0.152247	0.00	0.25	0.75	0.25	0.00	0.00	0.00	0.00	0.00	0.00	0.25	0.00	0.00	0.00	0.00	0.00	0.040039	0.547363	2.285156	-78.889999	31.780001	-30.590000	16.00	0.000000	0.000000
1.99	6.00	6.75	8.75	11.00	3.25	9.00	0.00	6.25	0.00	1.25	3.00	4.50	5.50	6.50	0.50	4.50	-0.216309	0.135742	0.973633	2.450000	0.770000	0.910000	796.00	-0.088109	-0.151891	0.25	0.50	0.75	0.25	0.00	0.00	0.00	0.00	0.00	0.00	0.00	0.00	0.00	0.00	0.00	0.00	0.460449	0.225586	1.402344	-70.559998	-39.900002	-15.680000	18.00	0.000000	0.000000
2.00	5.75	6.50	8.25	10.75	3.25	9.00	0.00	6.25	0.00	1.25	3.50	4.50	5.25	6.75	0.50	4.50	-0.215332	0.137695	0.974609	2.100000	1.470000	0.490000	788.00	-0.081434	-0.152178	0.50	0.25	0.25	0.25	0.00	0.00	0.00	0.00	0.00	0.25	0.25	0.00	0.00	0.00	0.00	0.00	0.128906	0.243164	0.943359	-92.889999	-83.230003	-10.150000	18.00	0.000000	0.000000
2.01	5.75	6.25	7.75	10.25	3.00	9.00	0.00	6.00	0.00	1.50	3.25	4.50	5.50	7.00	0.75	4.75	-0.219238	0.136230	0.974121	1.820000	1.750000	0.140000	776.00	-0.073317	-0.152343	0.25	0.00	0.00	0.25	0.00	0.00	0.00	0.00	0.00	0.00	0.00	0.00	0.00	0.00	0.00	0.00	0.125977	0.269531	0.798340	-110.809998	-98.840004	-4.200000	5.00	0.000000	0.000000
2.02	5.25	6.25	7.75	10.00	3.00	8.50	0.00	6.00	0.25	1.75	3.50	4.50	5.50	7.00	0.50	5.00	-0.213867	0.143555	0.973145	1.260000	2.380000	-0.280000	770.00	-0.067181	-0.150845	0.00	0.25	0.25	0.50	0.00	0.00	0.00	0.00	0.25	0.00	0.00	0.00	0.00	0.25	0.00	0.00	0.071777	0.348145	0.657715	-114.029999	-100.590004	3.920000	16.00	0.000000	0.000000
2.03	4.50	6.25	7.00	9.75	2.75	8.25	0.00	6.00	0.00	2.00	3.25	5.00	5.50	6.75	0.50	4.75	-0.220703	0.138672	0.971680	1.050000	2.590000	-0.350000	744.00	-0.061688	-0.159224	0.00	0.00	0.50	0.25	0.00	0.00	0.00	0.00	0.25	0.00	0.00	0.00	0.00	0.25	0.00	0.00	0.049805	0.386719	0.670410	-105.559998	-99.750000	10.640000	14.00	0.000000	0.000000
2.04	4.75	6.00	6.50	9.00	2.75	8.00	0.00	6.00	0.00	1.75	3.75	5.00	5.50	6.75	1.50	4.75	-0.225098	0.135742	0.969727	0.980000	2.730000	-0.420000	741.00	-0.049773	-0.158376	0.00	0.00	0.50	0.25	0.00	0.00	0.00	0.00	0.00	0.00	0.00	0.00	0.00	0.25	0.00	0.00	0.037598	0.395996	0.686523	-97.650002	-100.590004	18.830000	10.00	0.000000	0.000000
2.05	4.00	5.50	6.25	8.75	2.75	8.00	0.00	5.75	0.00	2.00	4.00	5.00	5.50	7.00	1.25	4.75	-0.225586	0.137207	0.974121	0.910000	2.590000	-0.350000	724.00	-0.040382	-0.159004	0.25	0.00	0.25	0.25	0.00	0.00	0.00	0.00	0.00	0.00	0.00	0.00	0.00	0.25	0.00	0.00	0.007812	0.403320	0.705078	-92.959999	-101.779999	28.840000	10.00	0.000000	0.000000
2.06	3.75	5.50	6.25	8.25	2.50	7.75	0.00	5.75	0.00	2.00	4.00	5.00	5.50	7.00	1.00	4.75	-0.223145	0.136230	0.969727	0.910000	2.660000	-0.350000	708.00	-0.038048	-0.160174	0.00	0.00	0.25	0.25	0.00	0.25	0.00	0.00	0.00	0.25	0.00	0.00	0.00	0.25	0.00	0.00	-0.019043	0.419922	0.719238	-91.910004	-103.110001	40.529999	13.00	0.000000	0.000000
2.07	4.50	5.50	6.25	8.25	2.50	7.50	0.00	5.75	0.25	2.25	3.75	5.25	5.50	7.75	1.25	5.00	-0.213867	0.134766	0.973633	0.980000	2.240000	-0.350000	729.00	-0.032956	-0.151838	0.25	0.25	0.50	0.50	0.00	0.25	0.00	0.00	0.00	0.00	0.25	0.00	0.00	0.25	0.00	0.00	-0.072754	0.464844	0.755371	-91.769997	-105.840004	59.290001	23.00	0.000000	0.000000
2.08	4.25	5.25	6.00	7.50	2.75	7.75	0.00	5.75	0.00	2.00	4.00	5.00	5.75	7.75	1.25	5.00	-0.221680	0.135742	0.970215	1.260000	1.890000	-0.140000	715.00	-0.028999	-0.155489	0.50	0.25	0.25	0.25	0.00	0.00	0.00	0.00	0.00	0.00	0.25	0.00	0.00	0.25	0.00	0.00	-0.110352	0.487793	0.787598	-91.070000	-108.849998	71.820000	18.00	0.000000	0.000000
2.09	4.25	5.25	6.00	7.75	2.25	7.50	0.00	6.00	0.00	2.25	4.25	5.00	6.00	7.50	1.50	4.50	-0.222656	0.138672	0.975586	1.470000	1.330000	-0.140000	719.00	-0.027377	-0.158324	0.00	0.00	0.25	0.25	0.00	0.00	0.00	0.00	0.00	0.00	0.00	0.00	0.00	0.00	0.00	0.00	-0.145508	0.514648	0.845703	-89.529999	-113.820000	84.279999	6.00	0.000000	0.000000
2.10	4.25	5.25	6.00	8.00	2.25	7.50	0.00	6.00	0.00	2.00	4.25	5.25	5.75	7.25	1.25	4.50	-0.223633	0.130859	0.970215	1.540000	0.980000	-0.140000	715.00	-0.031990	-0.160253	0.00	0.00	0.25	0.50	0.00	0.00	0.00	0.00	0.00	0.25	0.00	0.00	0.00	0.00	0.00	0.00	-0.178223	0.539062	0.918457	-88.199997	-121.379997	96.529999	11.00	0.000000	0.000000
2.11	4.50	5.25	6.25	8.00	2.25	7.75	0.00	6.00	0.00	1.75	4.25	5.50	5.75	7.25	1.25	4.75	-0.219727	0.138672	0.967773	1.680000	0.700000	0.000000	724.00	-0.034036	-0.160336	0.25	0.00	0.25	0.25	0.00	0.25	0.00	0.00	0.00	0.00	0.00	0.00	0.00	0.00	0.00	0.00	-0.206543	0.550293	0.979492	-87.779999	-131.320007	108.570000	11.00	0.000000	0.000000
2.12	4.00	5.25	6.00	8.00	2.25	7.75	0.00	6.25	0.00	1.75	4.25	5.50	6.00	7.25	1.50	5.00	-0.216309	0.136719	0.966309	1.610000	0.350000	-0.070000	726.00	-0.027456	-0.165329	0.25	0.00	0.25	0.00	0.00	0.00	0.00	0.00	0.00	0.00	0.00	0.00	0.00	0.00	0.00	0.00	-0.260742	0.572754	1.060547	-90.300003	-149.520004	125.370003	5.00	0.000000	0.000000
2.13	3.75	5.25	5.75	8.25	2.75	7.75	0.00	6.25	0.00	1.75	4.00	5.25	6.00	7.25	1.00	5.00	-0.221680	0.137695	0.969238	1.890000	0.350000	0.070000	719.00	-0.031891	-0.166113	0.25	0.25	0.50	0.00	0.00	0.00	0.00	0.00	0.00	0.00	0.00	0.00	0.00	0.25	0.00	0.00	-0.321289	0.591797	1.057617	-92.820000	-161.350006	135.029999	13.00	0.000000	0.000000
2.14	3.75	5.25	6.00	8.25	2.50	8.00	0.00	6.25	0.00	1.75	4.00	5.50	6.25	7.00	1.75	4.75	-0.222656	0.134766	0.965820	2.030000	0.420000	0.070000	730.00	-0.028694	-0.167554	0.00	0.25	0.25	0.00	0.00	0.00	0.00	0.00	0.00	0.00	0.00	0.00	0.00	0.00	0.00	0.00	-0.384766	0.605957	1.042480	-95.129997	-170.660004	142.520004	5.00	0.000000	0.000000
2.15	4.50	5.25	6.25	8.25	2.25	8.00	0.00	6.50	0.00	1.75	4.00	5.50	6.25	7.00	2.00	5.00	-0.224121	0.142578	0.972656	2.170000	0.070000	0.280000	746.00	-0.030791	-0.165668	0.00	0.00	0.25	0.00	0.00	0.00	0.00	0.00	0.00	0.25	0.00	0.00	0.00	0.25	0.00	0.00	-0.455566	0.622559	1.030762	-95.410004	-177.169998	148.470001	8.00	0.000000	0.000000
2.16	4.50	5.25	6.25	8.25	2.25	8.50	0.00	6.50	0.00	2.00	4.00	5.75	6.25	7.00	1.50	5.00	-0.220215	0.136230	0.964844	1.960000	0.490000	0.070000	752.00	-0.032963	-0.166689	0.00	0.00	0.25	0.00	0.00	0.00	0.00	0.00	0.00	0.25	0.25	0.00	0.00	0.25	0.00	0.00	-0.523438	0.642578	1.012695	-93.239998	-180.740005	152.669998	10.00	0.000000	0.000000
2.17	4.25	5.25	5.75	8.25	2.25	8.50	0.00	6.50	0.00	1.75	4.25	5.75	6.50	6.75	1.25	5.00	-0.223633	0.139160	0.968750	1.890000	0.140000	0.070000	741.00	-0.032215	-0.172361	0.00	0.00	0.25	0.00	0.00	0.00	0.00	0.00	0.00	0.00	0.00	0.00	0.00	0.25	0.00	0.00	-0.586426	0.663086	1.002441	-88.970001	-181.649994	156.100006	5.00	0.000000	0.000000
2.18	4.25	5.50	6.00	8.50	2.50	8.50	0.00	6.75	0.00	1.75	4.50	5.50	6.50	6.75	1.25	4.75	-0.221680	0.142578	0.970215	1.890000	0.490000	-0.070000	754.00	-0.036072	-0.170942	0.25	0.00	0.25	0.25	0.00	0.00	0.00	0.00	0.00	0.00	0.00	0.00	0.00	0.00	0.00	0.00	-0.656738	0.702148	1.019531	-84.699997	-180.389999	159.600006	8.00	0.000000	0.000000
2.19	4.50	5.75	6.25	8.25	2.50	8.50	0.00	6.75	0.00	1.75	4.25	5.75	6.50	7.00	1.25	4.75	-0.223145	0.141113	0.971191	1.610000	0.630000	-0.070000	761.00	-0.037207	-0.168472	0.25	0.25	0.25	0.25	0.00	0.00	0.00	0.00	0.00	0.00	0.00	0.00	0.00	0.00	0.00	0.00	-0.676758	0.728027	1.038086	-81.480003	-175.839996	168.070007	10.00	0.000000	0.000000
2.20	4.50	5.75	6.50	8.50	2.50	8.50	0.00	6.75	0.00	2.00	4.00	6.00	6.75	6.75	1.50	4.75	-0.221680	0.144531	0.966797	1.680000	0.420000	-0.140000	772.00	-0.037185	-0.169053	0.25	0.25	0.50	0.50	0.00	0.00	0.00	0.00	0.00	0.00	0.00	0.00	0.00	0.00	0.00	0.00	-0.649414	0.752930	1.031250	-81.690002	-171.850006	175.979996	16.00	0.000000	0.000000
2.21	4.25	5.50	6.25	8.50	2.25	8.50	0.00	7.00	0.00	2.00	4.00	5.75	7.00	6.75	1.00	4.75	-0.225098	0.143066	0.965332	1.540000	0.700000	-0.140000	759.00	-0.036849	-0.173905	0.25	0.25	0.50	0.00	0.00	0.00	0.00	0.00	0.00	0.00	0.00	0.00	0.00	0.00	0.00	0.00	-0.672363	0.791504	1.101074	-83.090004	-167.369995	184.100006	10.00	0.000000	0.000000
2.22	4.50	5.25	6.00	8.50	2.25	8.50	0.00	7.00	0.00	1.50	4.00	6.25	7.00	6.75	0.75	4.75	-0.218262	0.148438	0.965820	1.540000	0.840000	-0.280000	754.00	-0.037849	-0.176739	0.00	0.00	0.25	0.00	0.00	0.00	0.00	0.00	0.00	0.00	0.00	0.00	0.00	0.00	0.00	0.00	-0.677734	0.836914	1.171387	-82.459999	-164.220001	191.449997	3.00	0.000000	0.000000
2.23	4.25	5.25	6.25	8.00	2.50	8.75	0.00	7.00	0.00	1.25	4.00	6.50	7.00	7.00	1.25	5.00	-0.219727	0.145020	0.967773	1.470000	0.910000	-0.210000	763.00	-0.031433	-0.175707	0.00	0.00	0.25	0.00	0.00	0.00	0.00	0.00	0.00	0.00	0.00	0.00	0.00	0.00	0.00	0.00	-0.694824	0.866211	1.234375	-79.309998	-162.960007	198.100006	3.00	0.000000	0.000000
2.24	4.25	5.25	6.00	8.25	2.25	8.50	0.00	7.00	0.00	1.50	4.00	6.50	7.50	7.50	1.50	5.00	-0.228516	0.148926	0.971680	1.400000	1.050000	-0.280000	772.00	-0.024744	-0.175872	0.25	0.00	0.25	0.00	0.00	0.00	0.00	0.00	0.00	0.00	0.00	0.00	0.00	0.00	0.00	0.00	-0.742676	0.889648	1.275391	-71.470001	-164.149994	205.100006	5.00	0.000000	0.000000
2.25	3.75	5.25	5.75	8.00	2.25	8.50	0.00	7.00	0.00	1.50	4.25	6.50	7.50	7.00	1.50	5.00	-0.219238	0.145020	0.969727	1.470000	1.260000	-0.280000	759.00	-0.021919	-0.180385	0.25	0.00	0.50	0.00	0.00	0.00	0.00	0.00	0.00	0.00	0.00	0.00	0.00	0.00	0.00	0.00	-0.791016	0.895508	1.266602	-67.830002	-164.779999	206.710007	8.00	0.000000	0.000000
2.26	3.75	5.25	6.25	7.50	2.00	8.25	0.00	7.25	0.00	1.75	4.75	6.50	7.25	7.25	1.50	5.00	-0.218750	0.143555	0.967285	1.400000	0.980000	-0.280000	765.00	-0.017658	-0.176627	0.00	0.00	0.25	0.25	0.00	0.00	0.00	0.00	0.00	0.00	0.00	0.00	0.00	0.00	0.00	0.00	-0.853516	0.893066	1.225586	-65.099998	-163.729996	206.080002	6.00	0.000000	0.000000
2.27	4.00	5.00	6.00	7.50	2.00	8.25	0.00	7.00	0.00	1.75	4.75	6.75	7.50	7.00	1.75	5.00	-0.226074	0.144043	0.965820	1.260000	1.120000	-0.420000	764.00	-0.015309	-0.177470	0.00	0.00	0.25	0.25	0.00	0.00	0.00	0.00	0.00	0.00	0.00	0.00	0.00	0.00	0.00	0.00	-0.904785	0.893555	1.174805	-61.670002	-160.229996	203.419998	6.00	0.000000	0.000000
2.28	4.00	5.00	5.75	7.75	2.00	8.25	0.00	7.25	0.00	1.75	5.00	6.75	7.50	7.25	1.75	5.00	-0.221680	0.141113	0.965332	1.260000	1.400000	-0.560000	773.00	-0.013361	-0.178471	0.25	0.00	0.25	0.25	0.00	0.00	0.00	0.00	0.00	0.00	0.00	0.00	0.00	0.00	0.00	0.00	-0.974609	0.917969	1.125488	-53.200001	-151.970001	196.910004	8.00	0.000000	0.000000
2.29	3.75	5.00	5.50	7.50	2.25	8.75	0.00	7.25	0.00	1.75	5.00	7.00	7.75	7.25	1.75	5.25	-0.221680	0.142090	0.963379	1.400000	1.260000	-0.490000	779.00	-0.009653	-0.181452	0.00	0.00	0.25	0.25	0.00	0.00	0.00	0.00	0.00	0.00	0.00	0.00	0.00	0.00	0.00	0.00	-0.984375	0.925781	1.113770	-48.720001	-148.960007	194.460007	6.00	0.000000	0.000000
2.30	3.75	4.50	5.50	7.50	2.25	8.50	0.00	7.50	0.00	1.50	4.50	7.00	7.75	8.00	2.00	5.00	-0.222656	0.143555	0.959473	1.540000	1.120000	-0.420000	775.00	-0.004931	-0.179995	0.00	0.25	0.25	0.00	0.00	0.25	0.00	0.00	0.00	0.00	0.00	0.00	0.00	0.00	0.00	0.00	-1.012695	0.940430	1.093262	-30.309999	-140.910004	187.180008	8.00	0.000000	0.000000
2.31	3.50	4.25	5.25	7.25	2.25	8.50	0.00	7.50	0.00	1.75	4.75	7.25	8.00	7.25	2.00	5.25	-0.220703	0.147461	0.978027	1.470000	1.260000	-0.560000	770.00	-0.000397	-0.185169	0.00	0.25	0.25	0.00	0.00	0.25	0.00	0.00	0.00	0.00	0.00	0.00	0.00	0.00	0.00	0.00	-1.006348	0.942383	1.083008	-14.210000	-136.990005	182.279999	8.00	0.000000	0.000000
2.32	3.50	3.75	5.25	7.00	2.25	8.25	0.00	7.50	0.00	1.75	5.50	7.25	8.00	7.50	2.00	5.25	-0.218750	0.149902	0.968750	1.750000	1.120000	-0.420000	770.00	0.007102	-0.183122	0.00	0.00	0.25	0.00	0.00	0.00	0.00	0.00	0.00	0.00	0.00	0.00	0.00	0.00	0.00	0.00	-1.004395	0.914551	1.073242	2.590000	-133.559998	178.080002	3.00	0.000000	0.000000
2.33	3.25	4.00	5.00	7.00	2.00	8.25	0.00	7.50	0.00	1.25	5.25	7.50	8.00	8.25	2.00	5.00	-0.216797	0.142578	0.964355	1.680000	1.260000	-0.490000	764.00	0.009803	-0.184984	0.00	0.00	0.50	0.00	0.00	0.00	0.00	0.00	0.00	0.00	0.00	0.00	0.00	0.00	0.00	0.00	-0.987793	0.860352	1.044922	18.830000	-130.270004	174.369995	6.00	0.000000	0.000000
2.34	3.50	4.00	5.00	7.00	2.00	8.25	0.00	7.75	0.00	1.75	5.75	7.50	8.25	8.25	2.25	5.25	-0.218750	0.145508	0.971680	2.030000	1.120000	-0.420000	787.00	0.013675	-0.183555	0.00	0.25	0.25	0.00	0.00	0.00	0.00	0.00	0.00	0.00	0.00	0.00	0.00	0.00	0.00	0.00	-0.980469	0.801758	1.010742	32.970001	-126.070000	170.940002	5.00	0.000000	0.000000
2.35	3.75	3.75	4.25	7.00	2.50	8.25	0.00	7.75	0.25	2.00	5.75	7.75	8.50	8.25	2.25	5.00	-0.223145	0.148438	0.968750	2.170000	1.400000	-0.560000	794.00	0.017771	-0.182047	0.00	0.00	0.00	0.00	0.00	0.00	0.00	0.00	0.00	0.00	0.00	0.00	0.00	0.00	0.00	0.00	-0.979980	0.709473	0.972656	53.060001	-117.389999	167.930008	0.00	0.000000	0.000000
2.36	3.25	4.00	4.25	6.75	2.25	8.25	0.00	7.75	0.25	1.50	6.25	7.75	8.50	8.00	1.50	5.50	-0.218750	0.147461	0.966797	2.240000	1.610000	-0.560000	778.00	0.016937	-0.188294	0.00	0.25	0.00	0.00	0.00	0.00	0.00	0.00	0.00	0.00	0.00	0.00	0.00	0.00	0.00	0.00	-0.964355	0.626465	0.915039	66.360001	-110.320000	168.000000	2.00	0.000000	0.000000
2.37	3.00	4.00	4.75	6.75	2.00	8.25	0.00	7.75	0.00	1.75	6.00	8.25	9.00	8.00	2.00	5.75	-0.221191	0.153320	0.967773	2.030000	1.540000	-0.560000	791.00	0.021161	-0.191215	0.00	0.25	0.25	0.25	0.00	0.00	0.00	0.00	0.00	0.25	0.00	0.00	0.00	0.00	0.00	0.00	-0.938477	0.513672	0.856934	83.019997	-102.199997	172.410004	10.00	0.000000	0.000000
2.38	2.50	3.50	4.50	6.25	1.75	8.25	0.00	7.75	0.00	2.50	6.25	8.50	9.00	8.25	2.75	5.50	-0.218750	0.152344	0.968262	2.310000	2.310000	-0.630000	792.00	0.037910	-0.190251	0.00	0.00	0.50	0.25	0.00	0.00	0.00	0.00	0.00	0.25	0.00	0.00	0.00	0.00	0.00	0.00	-0.948730	0.386719	0.852539	101.220001	-92.260002	179.550003	11.00	0.000000	0.000000
2.39	2.25	3.50	4.50	6.00	2.00	8.25	0.00	7.75	0.00	2.00	6.25	8.75	9.50	8.75	3.00	5.75	-0.215820	0.151855	0.970703	2.380000	2.380000	-0.700000	800.00	0.043610	-0.191601	0.00	0.00	0.25	0.25	0.00	0.00	0.00	0.00	0.00	0.00	0.00	0.00	0.00	0.00	0.00	0.00	-0.987793	0.279297	0.882324	115.570000	-80.919998	184.869995	6.00	0.000000	0.000000
2.40	2.50	3.50	4.25	5.75	2.00	8.00	0.00	7.75	0.00	2.25	6.50	9.25	9.75	9.25	2.50	5.75	-0.221680	0.152344	0.965332	2.380000	2.870000	-0.910000	806.00	0.047249	-0.190318	0.00	0.00	0.00	0.25	0.00	0.00	0.00	0.00	0.00	0.00	0.00	0.00	0.00	0.00	0.00	0.00	-1.011230	0.179199	0.922363	116.480003	-70.980003	187.949997	3.00	0.000000	0.000000
2.41	2.50	3.25	3.75	5.75	2.00	8.00	0.00	7.75	0.00	2.25	7.00	9.50	10.00	9.50	2.25	5.75	-0.224609	0.149414	0.967285	2.380000	3.010000	-1.050000	807.00	0.052536	-0.192290	0.25	0.00	0.00	0.25	0.00	0.00	0.00	0.00	0.00	0.00	0.00	0.00	0.00	0.00	0.00	0.00	-1.029297	0.088379	0.920898	88.760002	-62.160000	188.720001	5.00	0.000000	0.000000
2.42	2.00	3.50	3.50	5.25	2.00	7.50	0.00	7.75	0.00	2.50	7.00	9.50	10.25	9.75	2.75	6.00	-0.220703	0.156738	0.964355	2.520000	3.360000	-1.190000	804.00	0.063652	-0.192766	0.25	0.00	0.00	0.25	0.00	0.00	0.00	0.00	0.00	0.00	0.00	0.00	0.00	0.00	0.00	0.00	-1.031250	0.052734	0.862305	58.799999	-58.450001	185.990005	5.00	0.000000	0.000000
2.43	1.75	3.25	3.50	5.00	1.75	7.25	0.00	8.00	0.00	2.75	7.50	9.75	10.50	10.50	2.75	6.00	-0.223633	0.150391	0.963379	2.730000	3.640000	-1.330000	814.00	0.073778	-0.192039	0.25	0.25	0.25	0.25	0.00	0.00	0.00	0.00	0.00	0.00	0.00	0.00	0.00	0.00	0.00	0.00	-1.020508	0.047852	0.774902	29.820000	-54.110001	180.320007	10.00	0.000000	0.000000
2.44	1.50	2.50	3.25	4.75	1.75	7.25	0.00	8.00	0.00	3.00	7.75	10.25	10.50	10.75	2.75	6.25	-0.221680	0.150879	0.964355	3.150000	3.850000	-1.540000	813.00	0.085104	-0.192911	0.25	0.25	0.25	0.00	0.00	0.00	0.00	0.00	0.00	0.00	0.00	0.00	0.00	0.00	0.00	0.00	-1.008301	0.060547	0.687988	8.750000	-47.180000	170.869995	8.00	0.000000	0.000000
2.45	1.50	2.75	3.00	4.25	1.50	7.00	0.00	8.00	0.00	3.00	8.25	10.75	10.75	11.25	2.50	6.25	-0.223145	0.148438	0.966309	3.360000	4.130000	-1.750000	816.00	0.091481	-0.193478	0.25	0.00	0.50	0.00	0.00	0.25	0.00	0.00	0.00	0.00	0.00	0.00	0.00	0.00	0.00	0.00	-1.001953	0.095215	0.630859	-1.330000	-38.639999	158.970001	11.00	0.000000	0.000000
2.46	1.25	2.00	2.25	3.75	1.50	7.00	0.00	8.00	0.00	3.25	8.50	10.75	11.25	11.75	3.25	6.50	-0.221680	0.159180	0.963379	3.920000	4.550000	-2.240000	816.00	0.110076	-0.194902	0.00	0.00	0.25	0.25	0.25	0.00	0.00	0.00	0.00	0.00	0.00	0.00	0.00	0.00	0.00	0.00	-0.993164	0.127930	0.626465	-1.400000	-29.820000	145.880005	8.00	0.000000	0.000000
2.47	1.00	2.50	2.00	2.50	1.25	6.75	0.00	8.00	0.00	3.50	9.00	11.75	11.50	12.00	3.50	6.50	-0.211914	0.158203	0.961426	4.620000	4.970000	-3.010000	821.00	0.122611	-0.196103	0.25	0.00	0.25	0.25	0.00	0.00	0.00	0.00	0.00	0.00	0.00	0.00	0.00	0.00	0.00	0.00	-2.597168	0.120605	0.349609	9.660000	-18.410000	127.959999	8.00	0.000000	0.000000
2.48	0.50	2.00	2.00	2.50	1.25	6.25	0.00	8.00	0.00	3.50	9.00	12.50	11.75	12.75	3.75	6.50	-0.224609	0.172363	0.957520	5.740000	5.320000	-4.130000	825.00	0.134827	-0.196067	0.50	0.00	0.25	0.25	0.00	0.00	0.00	0.00	0.00	0.00	0.00	0.00	0.00	0.00	0.00	0.00	-0.998047	-0.110352	-0.332520	-14.280000	48.790001	124.879997	11.00	0.000000	0.000000
2.49	0.25	1.00	1.50	2.00	1.00	5.75	0.00	8.00	0.00	3.50	9.50	12.50	12.75	13.75	3.75	6.75	-0.222656	0.170410	0.960449	7.420000	6.930000	-6.160000	818.00	0.155316	-0.198082	0.50	0.25	0.25	0.00	0.00	0.00	0.00	0.00	0.00	0.00	0.00	0.00	0.00	0.00	0.00	0.00	-1.731934	0.044434	0.253906	-38.779999	73.779999	127.540001	10.00	0.000000	0.000000
2.50	0.25	0.50	0.50	1.75	0.75	5.50	0.00	8.00	0.00	3.50	10.00	13.25	13.25	14.50	3.75	6.75	-0.223145	0.163086	0.969238	8.330000	8.260000	-7.000000	817.00	0.170781	-0.201594	0.00	0.00	0.00	0.00	0.00	0.00	0.00	0.00	0.00	0.00	0.00	0.00	0.00	0.00	0.00	0.00	-1.588379	0.112305	0.295898	-31.430000	105.209999	137.830002	0.00	0.000000	0.000000
2.51	0.25	0.75	0.75	1.50	0.25	5.25	0.00	8.00	0.25	3.50	10.25	14.25	13.25	14.75	3.75	7.00	-0.216309	0.153809	0.976562	9.170000	9.660000	-7.560000	832.00	0.174111	-0.200199	0.25	0.00	0.00	0.00	0.00	0.00	0.00	0.00	0.00	0.00	0.00	0.00	0.00	0.00	0.00	0.00	-1.787109	0.164551	0.402344	-19.600000	124.879997	150.149994	3.00	0.000000	0.000000
2.52	0.00	0.50	1.00	1.50	0.25	5.00	0.00	8.00	0.00	3.75	10.75	15.25	14.00	15.00	4.25	7.00	-0.196777	0.133301	0.989258	9.730000	14.910000	-6.370000	856.00	0.179660	-0.202037	0.25	0.00	0.00	0.00	0.00	0.00	0.00	0.00	0.00	0.00	0.00	0.00	0.00	0.00	0.00	0.00	-1.766602	-0.106445	0.397949	-19.320000	153.580002	159.809998	3.00	0.000000	0.000000
2.53	0.25	0.25	1.00	1.75	0.50	5.00	0.00	8.00	0.00	3.50	10.75	15.00	14.25	15.25	4.25	7.00	-0.237305	0.149902	0.973145	11.410000	18.760000	-5.880000	861.00	0.177327	-0.200665	0.75	0.25	0.25	0.25	0.00	0.00	0.00	0.00	0.00	0.00	0.00	0.00	0.00	0.00	0.00	0.00	-0.937988	-0.203125	0.756836	-24.219999	179.270004	157.850006	16.00	0.000000	0.000000
2.54	0.25	0.25	0.75	1.25	0.25	4.75	0.00	7.75	0.00	3.75	11.25	15.25	14.75	16.25	4.00	7.00	-0.238281	0.158203	0.957520	12.320000	20.860001	-5.180000	864.00	0.186703	-0.198131	1.00	1.00	0.50	0.50	0.00	0.00	0.00	0.00	0.00	0.00	0.00	0.00	0.00	0.00	0.00	0.00	-0.515137	-0.264648	1.296387	-35.279999	179.619995	145.250000	31.00	0.000000	0.000000
2.55	0.25	0.25	0.75	1.00	0.00	4.25	0.00	7.50	0.00	3.25	11.25	15.50	14.75	16.25	4.25	7.25	-0.240234	0.165527	0.973633	16.030001	25.200001	-4.200000	850.00	0.192990	-0.199265	1.50	2.25	1.00	1.00	0.00	0.00	0.00	0.00	0.00	0.00	0.00	0.00	0.00	0.00	0.00	0.00	-0.284180	-0.525391	1.400879	-46.970001	161.630005	128.100006	58.00	-0.359991	-0.055220
2.56	0.25	0.75	0.75	1.25	0.00	4.00	0.00	7.50	0.00	3.25	11.25	15.50	15.00	15.75	4.50	7.25	-0.251465	0.174316	0.979980	18.059999	27.790001	-4.130000	856.00	0.188774	-0.201114	3.25	4.50	1.25	2.75	0.00	0.00	0.00	0.00	0.00	0.00	0.00	0.00	0.00	0.00	0.00	0.00	-0.259766	-0.815430	1.241211	-53.200001	145.529999	96.669998	119.00	-0.362579	-0.073518
2.57	0.25	0.25	0.50	1.25	0.00	3.75	0.00	7.25	0.00	3.25	11.50	15.75	15.50	16.25	4.50	7.25	-0.243164	0.184082	0.979004	19.740000	30.380001	-4.200000	856.00	0.196683	-0.200638	5.00	5.25	3.25	4.75	0.00	0.00	0.00	0.00	0.00	0.00	0.00	0.00	0.00	0.00	0.00	0.00	-0.283691	-3.915527	5.244629	-176.330002	181.300003	13.160000	188.00	-0.348251	-0.057722
2.58	0.25	0.25	0.50	1.00	0.00	3.25	0.00	7.00	0.00	3.25	11.50	16.25	15.75	16.50	4.25	7.25	-0.245605	0.183105	0.979492	22.120001	33.459999	-5.040000	851.00	0.201295	-0.199912	6.25	6.50	5.75	5.75	0.00	0.25	0.00	0.00	0.00	0.00	0.00	0.00	0.00	0.00	0.00	0.00	-0.392090	0.175293	1.755859	28.559999	0.140000	3.430000	254.00	-0.340361	-0.047547
2.59	0.25	0.25	0.25	0.50	0.25	2.75	0.00	6.50	0.00	3.50	11.50	16.25	15.50	16.50	4.25	7.25	-0.271973	0.175293	1.014648	24.219999	38.430000	-5.950000	832.00	0.209471	-0.196119	6.75	7.00	6.50	6.50	0.00	0.50	0.00	0.00	0.00	0.00	0.00	0.00	0.00	0.00	0.00	0.00	-0.159668	0.288086	0.792480	23.590000	-21.559999	-3.150000	284.00	-0.337204	-0.049886
2.60	0.00	0.25	0.00	0.75	0.00	2.25	0.00	6.25	0.00	3.00	11.50	16.00	15.50	15.75	4.25	7.25	-0.264648	0.170898	1.013672	25.690001	45.500000	-5.740000	804.00	0.214229	-0.201950	6.75	6.25	6.25	6.25	0.25	0.50	0.00	0.00	0.00	0.00	0.00	0.00	0.00	0.00	0.00	0.00	-0.177734	0.384277	0.924805	1.260000	22.889999	1.050000	274.00	-0.334304	-0.045504
2.61	0.25	0.00	0.25	0.25	0.00	2.00	0.00	5.75	0.00	2.50	11.00	16.25	15.00	15.00	4.25	7.00	-0.265137	0.234863	1.018066	26.530001	54.110001	-7.140000	771.00	0.217466	-0.201854	5.75	6.00	6.00	6.00	0.25	0.50	0.00	0.00	0.00	0.00	0.00	0.00	0.00	0.00	0.00	0.00	-0.173828	0.025879	0.857910	-10.500000	40.250000	4.060000	256.00	-0.332017	-0.050214
2.62	0.25	0.00	0.00	0.25	0.00	1.25	0.00	5.50	0.00	2.25	10.75	15.50	14.75	15.00	4.25	7.00	-0.272461	0.213867	1.037109	30.100000	71.120003	-13.440001	741.00	0.224677	-0.200673	5.25	5.50	5.75	5.50	0.25	0.50	0.00	0.00	0.00	0.00	0.00	0.00	0.00	0.25	0.00	0.00	-0.230469	0.104492	1.069824	9.100000	20.790001	0.840000	240.00	-0.324032	-0.047025
2.63	0.00	0.00	0.00	0.00	0.00	0.50	0.00	4.75	0.00	1.75	10.25	14.50	13.25	12.75	3.50	6.75	-0.301758	0.236328	0.989258	34.160000	81.830002	-16.660000	654.00	0.231382	-0.205907	5.00	5.50	5.50	5.50	0.50	0.50	0.00	0.25	0.00	0.00	0.00	0.25	0.00	0.75	0.00	0.25	-0.189453	0.129395	0.822754	15.540000	7.280000	1.330000	249.00	-0.294955	-0.054487
2.64	0.00	0.00	0.00	0.00	0.00	0.50	0.00	4.25	0.00	1.50	9.50	14.50	13.00	11.25	3.75	6.75	-0.311523	0.187988	1.022949	36.470001	91.769997	-18.480000	623.00	0.231622	-0.212342	5.00	5.50	5.75	5.50	0.75	1.00	0.00	0.25	0.00	0.00	0.25	0.50	0.25	1.00	0.00	0.25	-0.235352	0.098145	1.020020	16.100000	15.330000	1.610000	270.00	-0.270753	-0.060617
2.65	0.00	0.00	0.00	0.00	0.00	0.75	0.00	4.25	0.00	1.25	9.00	13.50	13.25	9.00	4.00	6.75	-0.328125	0.195312	1.038086	37.520000	100.519997	-18.760000	593.00	0.225008	-0.226138	5.00	5.25	5.75	5.75	0.75	1.00	0.00	0.50	0.00	0.00	0.25	0.50	0.25	1.50	0.25	0.50	-0.241699	0.111816	1.002441	15.960000	10.010000	0.490000	282.00	-0.246574	-0.063641
2.66	0.00	0.00	0.00	0.00	0.00	0.25	0.00	4.00	0.00	0.75	8.00	13.00	12.75	8.00	4.00	6.50	-0.315918	0.213867	1.088379	36.049999	108.010002	-18.900000	549.00	0.227586	-0.232901	5.00	5.25	6.00	5.75	0.75	1.75	0.00	0.50	0.00	0.25	0.25	0.50	0.50	2.00	0.25	0.75	-0.233398	0.117188	1.008301	14.490000	8.540000	1.050000	304.00	-0.225109	-0.067343
2.67	0.00	0.00	0.00	0.00	0.00	0.25	0.00	4.00	0.00	0.25	6.75	12.25	12.25	7.00	3.50	6.50	-0.363281	0.226074	1.032715	31.430000	118.650002	-18.690001	504.00	0.223302	-0.244553	5.00	5.50	6.00	6.00	0.75	2.25	0.00	1.00	0.00	0.25	0.50	0.75	0.50	2.25	0.50	1.00	-0.234863	0.116211	1.008301	12.670000	7.420000	1.260000	333.00	-0.202453	-0.081840
2.68	0.00	0.00	0.00	0.00	0.00	0.00	0.00	4.00	0.00	0.25	6.00	11.50	12.00	5.75	3.00	6.50	-0.373535	0.244629	1.043945	32.340000	130.059998	-20.090000	468.00	0.219573	-0.256115	5.00	5.50	6.00	6.00	1.00	2.50	0.00	1.00	0.00	0.25	0.75	1.50	0.75	2.75	0.50	1.25	-0.238281	0.122559	0.994629	10.010000	5.530000	1.190000	357.00	-0.177477	-0.087275
2.69	0.00	0.00	0.00	0.00	0.00	0.00	0.00	3.75	0.00	0.25	4.50	10.50	11.50	4.50	2.75	6.25	-0.374023	0.300781	1.087891	36.889999	143.570007	-25.059999	419.00	0.215718	-0.268961	5.25	5.50	6.25	6.25	1.25	3.00	0.00	1.25	0.00	0.50	0.75	1.75	1.00	3.00	0.50	1.25	-0.234863	0.126953	0.984863	8.890000	4.620000	1.120000	387.00	-0.167412	-0.091262
2.70	0.00	0.00	0.00	0.00	0.00	0.00	0.00	3.75	0.00	0.25	3.25	9.00	11.00	3.50	2.75	5.75	-0.315430	0.391602	1.117188	41.439999	151.199997	-33.950001	374.00	0.210727	-0.280826	5.25	5.50	6.50	6.25	1.50	3.25	0.00	1.75	0.00	0.50	1.00	2.00	1.25	3.50	0.50	2.00	-0.237305	0.123047	0.983398	8.120000	4.060000	1.260000	418.00	-0.147235	-0.098497
2.71	0.00	0.00	0.00	0.00	0.00	0.00	0.00	3.50	0.00	0.25	2.00	7.75	10.25	2.75	2.50	5.25	-0.373047	0.475098	1.048340	46.759998	159.389999	-48.439999	326.00	0.206888	-0.292293	5.25	5.50	6.25	6.50	1.50	3.75	0.00	1.75	0.00	0.50	1.00	2.00	1.50	3.50	0.50	2.00	-0.234863	0.121582	0.993652	6.790000	3.500000	1.330000	426.00	-0.145816	-0.104619
2.72	0.00	0.00	0.00	0.00	0.00	0.00	0.00	3.25	0.00	0.25	1.00	6.50	9.25	1.50	2.50	4.75	-0.323242	0.515625	1.183105	53.200001	164.779999	-65.449997	276.00	0.200899	-0.310060	5.50	5.50	6.25	6.50	1.50	4.50	0.00	2.25	0.00	0.50	1.50	2.25	2.25	3.75	0.50	2.00	-0.230957	0.128906	0.982910	6.160000	2.730000	1.330000	461.00	-0.131886	-0.116101
2.73	0.00	0.00	0.00	0.00	0.00	0.25	0.00	3.00	0.00	0.50	0.50	5.25	8.00	2.25	2.00	4.25	-0.142090	0.688477	1.230469	68.599998	164.710007	-84.279999	247.00	0.200545	-0.294958	5.50	5.50	6.50	6.75	2.00	4.75	0.00	2.50	0.00	0.75	1.50	2.25	2.50	4.00	0.75	2.00	-0.239746	0.135254	0.986816	5.740000	2.240000	1.400000	488.00	-0.124021	-0.115677
2.74	0.00	0.00	0.00	0.00	0.00	0.00	0.00	2.50	0.00	0.25	0.75	3.50	7.00	2.50	2.00	3.50	-0.464844	0.742188	1.633301	125.300003	149.660004	-122.360001	208.00	0.212552	-0.281802	5.25	5.75	6.50	7.00	2.25	5.00	0.00	2.75	0.00	0.50	1.50	2.50	2.75	4.00	0.75	2.50	-0.233887	0.127930	0.983887	5.110000	2.170000	1.610000	504.00	-0.120398	-0.124040
2.75	0.00	0.00	0.00	0.00	0.00	0.00	0.00	2.00	0.00	0.00	0.75	2.75	6.25	2.25	1.25	2.75	-0.130371	0.800781	1.444336	186.199997	129.080002	-149.660004	169.00	0.208954	-0.288995	5.00	6.00	6.75	7.00	2.00	5.00	0.00	3.00	0.00	0.50	1.75	3.00	3.00	4.00	0.75	2.50	-0.239746	0.129883	0.982910	3.990000	1.610000	1.750000	518.00	-0.113952	-0.130306
2.76	0.00	0.00	0.00	0.00	0.00	0.00	0.00	1.50	0.00	0.25	0.50	1.50	4.75	1.50	1.25	2.25	-0.336914	0.792969	1.131348	226.169998	114.520004	-183.119995	126.00	0.213269	-0.283798	5.25	5.75	6.75	7.25	2.25	5.50	0.00	3.25	0.00	0.75	2.00	3.00	3.00	3.50	0.75	2.50	-0.238770	0.138672	0.975098	3.010000	1.260000	1.470000	534.00	-0.115471	-0.133249
2.77	0.00	0.00	0.00	0.00	0.00	0.00	0.00	1.00	0.00	0.50	0.25	0.50	3.25	1.00	1.00	1.75	-0.188477	0.694824	1.116699	244.649994	114.730003	-206.080002	85.00	0.220622	-0.268499	5.50	6.25	6.75	7.50	2.50	5.50	0.00	3.25	0.00	0.75	2.00	3.00	3.00	4.00	1.00	2.25	-0.239258	0.132324	0.977539	1.820000	1.120000	1.260000	552.00	-0.114843	-0.128794
2.78	0.00	0.00	0.00	0.00	0.00	0.00	0.00	0.75	0.00	0.50	0.25	0.75	2.25	1.25	0.25	1.25	-0.327637	0.743652	1.276367	268.100006	108.080002	-230.649994	67.00	0.218298	-0.243370	5.75	6.25	7.25	8.00	2.50	5.50	0.00	3.25	0.00	1.00	2.00	3.25	3.00	4.50	0.75	2.75	-0.228516	0.137207	0.976562	0.910000	1.050000	0.980000	575.00	-0.112400	-0.125236
2.79	0.00	0.00	0.00	0.00	0.00	0.00	0.00	0.25	0.00	0.50	0.25	0.50	1.00	0.75	0.25	0.25	-0.429199	0.670410	1.233887	288.470001	94.080002	-258.510010	36.00	0.000000	0.000000	6.00	6.50	7.50	8.00	2.75	5.50	0.00	3.25	0.00	1.00	2.25	3.00	3.25	4.75	0.75	2.75	-0.238281	0.136719	0.977539	-0.070000	1.120000	0.980000	590.00	-0.112651	-0.121828
2.80	0.00	0.00	0.00	0.00	0.00	0.00	0.00	0.25	0.00	0.25	0.25	0.50	0.50	0.25	0.25	0.25	-0.701660	0.957520	0.762695	307.369995	89.669998	-270.690002	25.00	0.000000	0.000000	6.00	6.50	7.50	8.00	2.75	5.75	0.00	3.50	0.00	0.75	2.25	2.75	3.25	4.75	1.00	2.75	-0.230469	0.134766	0.980957	-1.470000	1.610000	0.630000	594.00	-0.112857	-0.124117
2.81	0.00	0.00	0.00	0.00	0.00	0.00	0.00	0.00	0.00	0.00	0.00	0.25	0.25	0.00	0.25	0.25	-0.119629	0.389160	1.121094	327.809998	86.239998	-288.260010	9.00	0.000000	0.000000	6.25	6.75	7.50	8.25	3.00	6.00	0.00	3.50	0.00	1.00	2.75	3.25	3.25	5.00	1.00	2.75	-0.228516	0.131348	0.981934	-2.170000	2.100000	0.350000	622.00	-0.107339	-0.123145
2.82	0.00	0.00	0.00	0.00	0.00	0.00	0.00	0.00	0.00	0.00	0.50	0.50	0.50	0.75	0.00	0.25	-0.190918	0.185059	0.858887	265.019989	34.580002	-321.860016	23.00	0.000000	0.000000	6.25	6.75	7.75	8.25	3.50	6.00	0.00	3.75	0.00	1.25	3.00	3.50	3.25	5.25	1.00	2.75	-0.239258	0.137207	0.977539	-2.380000	2.450000	0.210000	644.00	-0.101848	-0.121167
2.83	0.00	0.00	0.00	0.00	0.00	0.00	0.00	0.00	0.00	0.00	0.00	0.50	0.25	0.25	0.00	0.00	0.292480	-0.227051	0.656738	227.710007	40.040001	-342.579987	10.00	0.000000	0.000000	6.00	6.50	7.50	8.25	3.50	6.00	0.00	3.50	0.25	1.25	3.00	3.25	3.25	5.75	1.00	3.00	-0.242676	0.132812	0.988281	-2.660000	2.310000	0.210000	639.00	-0.094348	-0.116919
2.84	0.00	0.00	0.00	0.00	0.00	0.00	0.00	0.00	0.00	0.00	0.00	0.25	0.00	0.00	0.00	0.00	0.092285	-0.007324	1.145508	161.210007	6.650000	-376.320007	3.00	0.000000	0.000000	6.00	7.00	7.25	8.00	3.25	6.00	0.00	3.50	0.25	1.75	3.00	3.50	3.25	5.75	1.25	3.00	-0.239746	0.131348	0.978516	-2.590000	2.380000	0.140000	646.00	-0.088980	-0.117592
2.85	0.00	0.00	0.00	0.00	0.00	0.00	0.00	0.00	0.00	0.00	0.00	0.00	0.00	0.25	0.00	0.00	0.491211	0.112305	2.096191	89.879997	-65.309998	-378.420013	2.00	0.000000	0.000000	6.25	6.75	7.25	8.00	3.25	6.00	0.00	3.50	0.00	1.50	3.00	3.50	3.50	5.75	1.50	3.00	-0.244629	0.134766	0.984863	-2.590000	2.380000	-0.070000	645.00	-0.089257	-0.120241
2.86	0.00	0.00	0.00	0.00	0.00	0.00	0.00	0.00	0.00	0.00	0.00	0.00	0.00	0.00	0.00	0.00	0.394043	0.299316	1.713867	56.349998	-142.729996	-363.019989	0.00	0.000000	0.000000	6.00	6.50	7.00	8.00	3.25	6.00	0.00	3.75	0.25	2.00	3.50	3.50	3.75	5.75	1.50	3.00	-0.243652	0.133301	0.981445	-2.520000	2.590000	-0.070000	657.00	-0.077986	-0.121114
2.87	0.00	0.00	0.00	0.00	0.00	0.00	0.00	0.00	0.00	0.00	0.00	0.00	0.00	0.00	0.00	0.00	0.326660	0.301270	1.276855	41.439999	-188.160004	-340.410004	0.00	0.000000	0.000000	5.50	6.25	6.75	7.50	3.50	6.00	0.00	3.75	0.25	2.00	3.50	3.50	3.75	6.25	1.25	3.25	-0.243652	0.135742	0.978516	-2.450000	3.080000	-0.280000	647.00	-0.069620	-0.120643
2.88	0.00	0.00	0.00	0.00	0.00	0.00	0.00	0.00	0.00	0.00	0.00	0.00	0.50	0.00	0.00	0.00	0.213867	0.267090	0.728516	32.759998	-202.020004	-304.570007	4.00	0.000000	0.000000	5.25	6.00	6.50	7.25	3.25	5.75	0.00	3.75	0.50	2.00	3.50	3.50	3.75	6.50	1.25	3.50	-0.240723	0.128906	0.992188	-2.450000	3.290000	-0.420000	638.00	-0.060432	-0.119403
2.89	0.00	0.00	0.00	0.00	0.00	0.00	0.00	0.00	0.00	0.00	0.00	0.00	0.50	0.00	0.00	0.25	0.196289	0.264160	0.552246	33.880001	-190.399994	-279.929993	6.00	0.000000	0.000000	5.00	5.75	6.25	7.25	3.25	5.75	0.00	3.75	0.25	2.25	3.75	3.75	3.75	6.25	1.50	3.25	-0.240234	0.125000	0.975586	-2.520000	3.290000	-0.420000	634.00	-0.055486	-0.123508
2.90	0.00	0.00	0.00	0.00	0.00	0.00	0.00	0.00	0.00	0.00	0.00	0.00	0.25	0.00	0.00	0.00	0.213867	0.300781	0.498047	46.340000	-172.899994	-253.610001	2.00	0.000000	0.000000	4.75	5.75	5.75	6.75	3.00	5.50	0.00	3.75	0.00	2.50	4.25	4.00	3.75	6.75	1.75	3.50	-0.243164	0.129395	0.987793	-2.380000	3.430000	-0.420000	630.00	-0.040426	-0.125775
2.91	0.00	0.00	0.00	0.00	0.00	0.00	0.00	0.00	0.00	0.00	0.00	0.00	0.25	0.00	0.00	0.00	0.245117	0.333496	0.494629	70.910004	-155.470001	-223.720001	2.00	0.000000	0.000000	3.50	5.50	5.75	6.50	3.25	5.25	0.00	3.75	0.25	2.50	4.25	4.00	4.00	7.25	1.50	3.50	-0.244629	0.126465	0.991699	-2.310000	3.500000	-0.280000	619.00	-0.026728	-0.125772
2.92	0.00	0.00	0.00	0.00	0.00	0.00	0.00	0.00	0.00	0.00	0.00	0.00	0.25	0.00	0.00	0.00	0.271484	0.344238	0.543457	99.680000	-138.880005	-190.820007	2.00	0.000000	0.000000	3.50	5.25	5.00	6.00	3.00	5.00	0.00	3.50	0.50	2.75	4.50	4.00	4.00	7.25	1.50	3.75	-0.244629	0.123535	0.984375	-2.240000	3.360000	-0.420000	604.00	-0.013990	-0.123606
2.93	0.00	0.00	0.00	0.00	0.00	0.00	0.00	0.00	0.00	0.00	0.00	0.00	0.25	0.00	0.00	0.00	0.286621	0.325195	0.661621	124.180000	-124.669998	-154.630005	2.00	0.000000	0.000000	3.75	5.25	4.50	5.75	2.75	4.75	0.00	3.50	0.50	2.75	5.00	4.25	4.00	7.50	1.75	3.75	-0.243652	0.130859	0.989746	-2.240000	3.080000	-0.350000	605.00	-0.004596	-0.123727
2.94	0.00	0.00	0.00	0.00	0.00	0.00	0.00	0.00	0.00	0.00	0.00	0.00	0.00	0.25	0.00	0.00	0.293457	0.253906	0.862305	140.839996	-109.199997	-95.900002	2.00	0.000000	0.000000	2.75	5.00	4.50	5.25	2.50	4.25	0.00	3.50	0.50	2.75	5.25	4.50	4.25	8.00	1.75	4.00	-0.244629	0.129395	0.980957	-1.960000	2.800000	-0.420000	592.00	0.014953	-0.126412
2.95	0.00	0.00	0.00	0.00	0.00	0.00	0.00	0.00	0.00	0.00	0.00	0.00	0.00	0.25	0.00	0.00	0.278320	0.191895	1.041016	142.800003	-104.860001	-57.330002	2.00	0.000000	0.000000	2.50	5.00	3.75	5.25	2.50	4.25	0.00	3.50	0.50	2.75	5.25	4.75	4.25	8.00	1.75	4.00	-0.241211	0.128418	0.981445	-1.820000	2.520000	-0.350000	584.00	0.021701	-0.131311
2.96	0.00	0.00	0.00	0.00	0.00	0.00	0.00	0.00	0.00	0.00	0.00	0.00	0.00	0.00	0.00	0.00	0.246582	0.101074	1.193359	142.309998	-108.220001	-23.240000	0.00	0.000000	0.000000	2.50	4.50	3.25	5.00	2.50	4.25	0.00	3.50	0.75	3.00	5.50	4.75	4.50	8.25	2.00	4.00	-0.248535	0.133301	0.972656	-1.610000	2.100000	-0.210000	586.00	0.036217	-0.129381
2.97	0.00	0.00	0.00	0.00	0.00	0.00	0.00	0.00	0.00	0.00	0.00	0.00	0.00	0.00	0.00	0.00	0.191895	0.005371	1.292969	142.309998	-116.690002	2.730000	0.00	0.000000	0.000000	2.75	4.25	3.50	5.00	2.50	4.50	0.00	3.50	0.50	3.50	6.00	4.75	4.50	8.50	2.25	4.00	-0.250977	0.131348	0.976562	-1.610000	2.030000	-0.140000	604.00	0.038974	-0.126975
2.98	0.00	0.00	0.00	0.00	0.00	0.00	0.00	0.00	0.00	0.00	0.00	0.00	0.00	0.00	0.00	0.00	0.124023	-0.103516	1.326172	142.100006	-125.370003	19.670000	0.00	0.000000	0.000000	2.50	4.25	3.00	4.75	2.25	4.50	0.00	3.75	0.50	3.25	6.00	5.00	4.50	9.00	2.25	4.00	-0.245117	0.131836	0.979004	-1.750000	1.260000	-0.350000	598.00	0.048178	-0.131515
2.99	0.00	0.00	0.00	0.00	0.00	0.00	0.00	0.00	0.00	0.00	0.00	0.00	0.00	0.00	0.00	0.00	0.050293	-0.199707	1.318359	142.869995	-132.720001	27.930000	0.00	0.000000	0.000000	1.75	3.50	2.50	4.25	2.25	4.25	0.00	3.75	0.75	3.50	6.00	5.00	4.50	9.50	2.00	4.25	-0.253418	0.127930	0.975586	-1.750000	1.050000	-0.490000	579.00	0.070748	-0.130110
3.00	0.00	0.00	0.00	0.00	0.00	0.00	0.00	0.00	0.00	0.00	0.00	0.00	0.00	0.00	0.00	0.00	-0.022461	-0.292969	1.335449	144.550003	-137.479996	28.139999	0.00	0.000000	0.000000	2.00	3.75	2.25	4.00	2.25	3.50	0.00	3.75	1.00	4.00	6.50	5.50	4.75	9.75	2.25	4.25	-0.246094	0.126465	0.978027	-1.820000	0.630000	-0.770000	596.00	0.081229	-0.125167
3.01	0.00	0.00	0.00	0.00	0.00	0.00	0.00	0.00	0.00	0.00	0.00	0.00	0.25	0.00	0.00	0.00	-0.086914	-0.378418	1.352539	146.580002	-139.789993	21.700001	2.00	0.000000	0.000000	1.50	3.00	2.75	4.00	2.25	3.50	0.00	3.75	1.00	4.25	6.50	5.75	5.00	10.50	2.50	4.25	-0.247070	0.126953	0.975586	-1.540000	0.490000	-0.770000	606.00	0.094312	-0.122477
3.02	0.00	0.00	0.00	0.00	0.00	0.00	0.00	0.00	0.00	0.00	0.00	0.00	0.00	0.00	0.00	0.00	-0.222168	-0.496582	1.464355	138.809998	-143.289993	3.220000	0.00	0.000000	0.000000	1.00	2.75	2.50	3.75	2.00	3.75	0.00	4.00	1.00	4.25	7.25	5.75	5.25	11.00	2.50	4.50	-0.248535	0.133789	0.983887	-1.400000	0.350000	-0.840000	612.00	0.107775	-0.127394
3.03	0.00	0.00	0.00	0.00	0.00	0.00	0.00	0.00	0.00	0.00	0.00	0.00	0.00	0.00	0.00	0.00	-0.296387	-0.518555	1.526367	126.699997	-149.240005	-11.830000	0.00	0.000000	0.000000	0.50	2.50	2.25	3.75	2.00	3.75	0.00	3.75	1.00	4.50	7.25	5.75	5.50	11.00	2.50	4.50	-0.247559	0.123535	0.973633	-1.260000	0.630000	-0.770000	603.00	0.117444	-0.128984
3.04	0.00	0.00	0.00	0.00	0.00	0.00	0.00	0.00	0.00	0.00	0.00	0.00	0.25	0.00	0.00	0.00	-0.355469	-0.495605	1.579590	112.910004	-157.850006	-26.110001	2.00	0.000000	0.000000	0.75	2.75	2.25	3.75	2.25	3.75	0.00	3.75	1.50	5.25	8.00	6.50	5.50	11.50	2.50	4.75	-0.248535	0.124023	0.982910	-0.910000	0.700000	-0.560000	646.00	0.120194	-0.121191
3.05	0.00	0.00	0.00	0.00	0.00	0.00	0.00	0.00	0.00	0.00	0.00	0.00	0.00	0.00	0.00	0.00	-0.403320	-0.450684	1.611816	100.730003	-168.350006	-38.360001	0.00	0.000000	0.000000	0.50	2.25	1.75	3.00	2.00	3.25	0.00	3.75	1.75	5.50	8.00	6.50	5.50	12.25	2.25	5.00	-0.251465	0.124512	0.973145	-0.630000	0.980000	-0.420000	628.00	0.141982	-0.116519
3.06	0.00	0.00	0.00	0.00	0.00	0.00	0.00	0.00	0.00	0.00	0.00	0.00	0.00	0.00	0.00	0.00	-0.427246	-0.391602	1.596680	93.730003	-180.110001	-48.369999	0.00	0.000000	0.000000	0.25	2.25	1.50	3.25	2.00	3.25	0.00	3.75	1.50	5.50	8.25	6.50	6.00	12.75	2.50	5.00	-0.250977	0.125488	0.976074	-0.490000	1.470000	-0.420000	636.00	0.146996	-0.121055
3.07	0.00	0.00	0.00	0.00	0.00	0.00	0.00	0.00	0.00	0.00	0.00	0.00	0.00	0.00	0.00	0.00	-0.473145	-0.348633	1.576660	91.419998	-190.889999	-55.860001	0.00	0.000000	0.000000	0.50	2.25	1.50	2.75	1.75	3.25	0.00	4.00	1.75	5.25	8.50	7.00	6.00	12.75	2.50	5.00	-0.245117	0.128906	0.983887	-0.420000	1.960000	-0.490000	643.00	0.149703	-0.121770
3.08	0.00	0.00	0.00	0.00	0.00	0.00	0.00	0.00	0.00	0.00	0.00	0.00	0.00	0.00	0.00	0.00	-0.551758	-0.322754	1.461914	90.860001	-199.220001	-63.560001	0.00	0.000000	0.000000	0.50	2.00	1.75	2.25	1.75	2.75	0.00	4.00	2.25	5.75	8.75	7.00	6.00	12.75	2.50	5.25	-0.250000	0.133789	0.978027	-0.420000	2.940000	-0.980000	648.00	0.158715	-0.113451
3.09	0.00	0.00	0.00	0.00	0.00	0.00	0.00	0.00	0.00	0.00	0.00	0.00	0.25	0.00	0.00	0.00	-0.597656	-0.327637	1.377441	88.199997	-198.029999	-67.550003	2.00	0.000000	0.000000	0.25	1.25	1.50	2.00	1.50	2.75	0.00	3.75	2.25	5.75	9.00	7.25	6.25	13.00	2.75	5.50	-0.250977	0.128418	0.978516	-0.560000	3.780000	-1.470000	640.00	0.175999	-0.114548
3.10	0.00	0.00	0.00	0.00	0.00	0.00	0.00	0.00	0.00	0.00	0.00	0.00	0.00	0.00	0.00	0.00	-0.682129	-0.328125	1.319336	83.160004	-192.360001	-72.239998	0.00	0.000000	0.000000	0.50	1.25	1.25	2.00	1.50	2.75	0.00	3.75	2.25	5.75	9.25	7.25	6.25	13.25	2.75	5.75	-0.250488	0.128906	0.970703	-0.350000	4.760000	-1.750000	646.00	0.176957	-0.113995
3.11	0.00	0.00	0.00	0.00	0.00	0.00	0.00	0.00	0.00	0.00	0.00	0.00	0.00	0.00	0.00	0.00	-0.754883	-0.334961	1.272461	78.330002	-184.100006	-77.699997	0.00	0.000000	0.000000	0.50	0.75	0.75	1.25	1.00	2.50	0.00	3.75	2.50	6.25	9.00	7.50	6.25	14.25	2.75	5.50	-0.252441	0.125977	0.988770	-0.280000	5.740000	-1.960000	635.00	0.198819	-0.107752
3.12	0.00	0.00	0.00	0.00	0.00	0.00	0.00	0.00	0.00	0.00	0.00	0.00	0.00	0.00	0.00	0.00	-0.823730	-0.362793	1.218750	75.459999	-175.000000	-83.930000	0.00	0.000000	0.000000	0.25	0.25	0.25	0.75	1.00	2.25	0.00	3.50	2.50	6.50	9.50	7.50	6.50	15.00	2.75	5.25	-0.253418	0.138672	0.980957	0.210000	7.000000	-2.450000	625.00	0.219207	-0.103721
3.13	0.00	0.00	0.00	0.00	0.00	0.00	0.00	0.00	0.00	0.00	0.00	0.00	0.00	0.00	0.00	0.00	-0.908203	-0.386719	1.175781	73.290001	-166.039993	-91.279999	0.00	0.000000	0.000000	0.25	0.25	0.25	0.75	0.75	1.50	0.00	3.25	2.25	6.50	9.50	7.50	6.50	14.75	3.25	5.50	-0.249023	0.124023	0.994141	0.210000	8.330000	-2.800000	612.00	0.228208	-0.103695
3.14	0.00	0.00	0.00	0.00	0.00	0.00	0.00	0.00	0.00	0.00	0.00	0.00	0.00	0.00	0.00	0.00	-1.023926	-0.476562	1.023438	69.370003	-150.779999	-102.970001	0.00	0.000000	0.000000	0.00	0.25	0.25	0.25	0.25	1.50	0.00	3.00	2.75	6.50	10.00	7.75	6.50	15.50	3.25	5.50	-0.256348	0.130859	0.981445	0.910000	10.080000	-3.500000	615.00	0.242207	-0.097183
3.15	0.00	0.00	0.00	0.00	0.00	0.00	0.00	0.00	0.00	0.00	0.00	0.00	0.00	0.00	0.00	0.00	-1.090332	-0.545898	0.882812	61.740002	-136.009995	-111.650002	0.00	0.000000	0.000000	0.25	0.25	0.25	0.50	0.25	1.50	0.00	3.00	2.75	6.75	10.25	7.75	6.50	15.50	3.00	5.50	-0.249512	0.109863	1.004395	2.730000	14.420000	-3.220000	623.00	0.236423	-0.096360
3.16	0.00	0.00	0.00	0.00	0.00	0.00	0.00	0.00	0.00	0.00	0.00	0.00	0.00	0.00	0.00	0.00	-1.140137	-0.582031	0.767578	53.970001	-118.090004	-120.190002	0.00	0.000000	0.000000	0.25	0.25	0.00	0.25	0.25	1.00	0.00	2.75	3.00	6.75	10.50	8.00	6.50	15.50	2.75	5.75	-0.272949	0.132324	0.976562	4.130000	18.690001	-2.940000	616.00	0.245478	-0.092748
3.17	0.00	0.00	0.00	0.00	0.00	0.00	0.00	0.00	0.00	0.00	0.00	0.00	0.00	0.00	0.00	0.00	-1.164062	-0.615723	0.662598	51.520000	-97.790001	-127.610001	0.00	0.000000	0.000000	0.25	0.25	0.25	0.25	0.00	1.00	0.00	2.75	3.00	7.00	10.50	8.00	6.50	16.00	3.25	5.25	-0.253906	0.125488	0.984375	4.620000	21.770000	-2.730000	625.00	0.246816	-0.089070
3.18	0.00	0.00	0.00	0.00	0.00	0.00	0.00	0.00	0.00	0.00	0.00	0.00	0.00	0.00	0.00	0.00	-1.186035	-0.680664	0.599609	53.130001	-76.650002	-133.559998	0.00	0.000000	0.000000	0.00	0.50	0.25	0.25	0.25	0.25	0.00	2.75	3.25	7.00	11.00	8.25	6.50	16.00	3.00	5.50	-0.269043	0.128418	0.988281	5.320000	25.270000	-2.730000	629.00	0.249892	-0.086838
3.19	0.00	0.00	0.00	0.00	0.00	0.00	0.00	0.00	0.00	0.25	0.00	0.00	0.00	0.00	0.00	0.00	-1.212891	-0.769043	0.548828	51.380001	-56.000000	-138.250000	3.00	0.000000	0.000000	0.25	0.00	0.00	0.25	0.00	0.25	0.00	2.25	3.50	7.50	11.00	8.25	6.50	16.50	3.00	5.50	-0.273926	0.115723	0.989258	5.320000	28.000000	-2.800000	627.00	0.260279	-0.078245
3.20	0.00	0.00	0.00	0.00	0.00	0.00	0.00	0.00	0.00	0.00	0.00	0.00	0.00	0.00	0.00	0.00	-1.230469	-0.804688	0.504883	43.049999	-36.049999	-141.680008	0.00	0.000000	0.000000	0.00	0.25	0.00	0.00	0.00	0.50	0.00	2.00	3.50	8.00	11.00	8.25	6.50	16.75	3.00	5.25	-0.276367	0.132324	1.009277	6.580000	34.160000	-2.940000	629.00	0.262924	-0.075091
3.21	0.00	0.00	0.00	0.00	0.00	0.00	0.00	0.00	0.00	0.00	0.00	0.00	0.00	0.00	0.00	0.00	-1.232910	-0.803711	0.479004	30.240000	-16.520000	-143.220001	0.00	0.000000	0.000000	0.00	0.00	0.00	0.00	0.00	0.25	0.00	1.75	3.25	8.00	11.25	8.50	6.50	17.25	3.00	5.25	-0.288086	0.125000	0.995117	7.210000	38.360001	-2.940000	626.00	0.269565	-0.073178
3.22	0.00	0.00	0.00	0.00	0.00	0.00	0.00	0.00	0.00	0.00	0.00	0.00	0.00	0.00	0.00	0.00	-1.896973	-1.343262	0.393555	0.490000	7.560000	-141.259995	0.00	0.000000	0.000000	0.00	0.00	0.00	0.00	0.00	0.00	0.00	1.75	3.75	8.25	11.25	8.50	6.25	17.50	3.00	5.75	-0.287598	0.146484	0.991699	6.720000	42.490002	-3.290000	635.00	0.272320	-0.067044
3.23	0.00	0.00	0.00	0.00	0.00	0.00	0.00	0.00	0.00	0.00	0.00	0.00	0.00	0.00	0.00	0.00	-1.274902	-0.887695	0.080078	-107.940002	61.180000	-131.320007	0.00	0.000000	0.000000	0.00	0.00	0.00	0.25	0.00	0.25	0.00	1.25	4.25	8.75	11.75	8.50	6.25	18.25	3.00	5.50	-0.295898	0.125977	0.985840	7.420000	47.040001	-3.640000	655.00	0.271929	-0.057830
3.24	0.00	0.00	0.00	0.00	0.00	0.00	0.00	0.00	0.00	0.00	0.00	0.00	0.00	0.00	0.00	0.00	-1.384766	-0.513184	0.406250	-148.610001	89.669998	-118.790001	0.00	0.000000	0.000000	0.00	0.00	0.00	0.00	0.00	0.00	0.00	1.25	4.50	9.00	11.75	8.75	5.75	19.00	3.25	5.50	-0.301270	0.138672	1.016113	5.390000	51.170002	-3.920000	663.00	0.278092	-0.050273
3.25	0.00	0.00	0.00	0.00	0.00	0.00	0.00	0.00	0.00	0.00	0.00	0.00	0.00	0.00	0.00	0.00	-1.885254	1.987793	1.627441	-233.729996	71.260002	-78.540001	0.00	0.000000	0.000000	0.00	0.00	0.00	0.25	0.00	0.00	0.00	1.00	4.75	9.00	11.75	8.50	5.75	19.75	3.25	5.50	-0.330566	0.135254	0.981445	4.200000	55.230000	-4.480000	669.00	0.278888	-0.044312
3.26	0.00	0.00	0.00	0.00	0.00	0.00	0.00	0.00	0.00	0.00	0.00	0.00	0.25	0.00	0.00	0.00	-0.292480	0.435547	0.416504	-139.580002	4.200000	-19.670000	2.00	0.000000	0.000000	0.00	0.00	0.00	0.00	0.00	0.00	0.00	0.50	4.75	9.50	11.50	8.50	5.50	20.75	3.25	5.50	-0.352539	0.186035	1.058594	-1.680000	62.230000	-5.810000	667.00	0.286510	-0.034295
3.27	0.00	0.25	0.00	0.25	0.00	0.00	0.00	0.00	0.00	0.00	0.00	0.00	0.25	0.00	0.00	0.00	0.180664	0.205566	0.671875	-186.410004	25.620001	-36.820000	7.00	0.000000	0.000000	0.00	0.00	0.00	0.00	0.00	0.00	0.00	0.75	5.00	9.50	11.50	8.00	5.00	20.75	3.00	5.50	-0.344238	0.162598	1.062012	-4.060000	71.120003	-8.470000	662.00	0.285561	-0.029755
3.28	0.00	0.50	0.00	0.50	0.00	0.00	0.00	0.25	0.00	0.00	0.00	0.00	0.25	0.00	0.00	0.00	-0.215820	0.020020	1.051270	-197.680008	28.350000	-47.950001	16.00	0.000000	0.000000	0.00	0.00	0.00	0.00	0.00	0.00	0.00	0.50	5.25	9.25	11.50	7.75	4.50	21.25	3.25	5.50	-0.343750	0.180176	1.078125	-5.530000	79.379997	-11.410000	659.00	0.289701	-0.021488
3.29	0.25	0.75	0.25	2.25	0.00	0.25	0.00	1.00	0.00	0.00	0.00	0.00	0.50	0.00	0.00	0.00	-1.452637	-1.655762	3.266113	-171.990005	60.410000	-34.860001	59.00	-0.196283	-0.251110	0.00	0.00	0.00	0.00	0.00	0.00	0.00	0.25	5.25	9.50	11.00	7.50	4.25	22.00	3.25	5.25	-0.365234	0.147461	1.073242	-7.210000	88.690002	-13.790000	653.00	0.293572	-0.013105
3.30	3.00	3.00	3.00	5.25	0.00	1.00	0.00	1.25	0.00	0.00	0.00	0.00	0.75	0.00	0.00	0.00	-0.161133	-0.919434	0.969238	16.730000	-23.730000	3.080000	186.00	-0.270086	-0.132133	0.00	0.00	0.00	0.00	0.00	0.00	0.00	0.00	5.25	10.00	10.75	7.00	3.50	22.25	3.50	5.00	-0.373047	0.145996	1.107422	-8.820000	99.959999	-15.260000	643.00	0.297916	-0.001986
3.31	5.00	5.00	5.00	6.25	0.00	2.25	0.00	1.25	0.00	0.00	0.00	0.00	0.75	0.00	0.00	0.00	-0.162109	0.247559	1.166504	8.050000	-2.380000	1.190000	272.00	-0.284583	-0.108719	0.00	0.00	0.00	0.00	0.00	0.00	0.00	0.00	5.75	10.00	9.75	6.25	3.00	22.25	3.25	4.75	-0.401367	0.210449	1.161133	-15.890000	125.440002	-19.110001	623.00	0.300138	0.010781
3.32	5.25	5.00	5.50	6.75	0.00	2.50	0.00	1.50	0.00	0.00	0.00	0.00	1.00	0.25	0.00	0.25	-0.142578	0.084961	0.922852	6.930000	3.500000	2.310000	298.00	-0.269402	-0.111827	0.00	0.00	0.00	0.00	0.00	0.00	0.00	0.00	5.75	9.75	9.25	5.25	2.50	22.25	3.00	4.50	-0.435547	0.192871	1.203125	-21.700001	147.419998	-25.480000	596.00	0.303040	0.021674
3.33	5.00	5.00	5.00	6.25	0.25	2.25	0.00	1.50	0.00	0.00	0.00	0.25	1.00	0.50	0.00	0.50	-0.260742	0.077637	1.039551	3.850000	9.170000	0.630000	290.00	-0.255386	-0.112867	0.00	0.00	0.00	0.00	0.00	0.00	0.00	0.00	5.50	9.75	8.50	3.75	1.50	22.00	3.00	4.00	-0.466309	0.179199	1.166504	-28.490000	169.750000	-31.150000	556.00	0.308532	0.039759
3.34	4.00	4.75	4.75	6.00	0.25	1.75	0.00	1.50	0.00	0.00	0.00	0.00	1.25	1.00	0.00	1.00	-0.179199	0.124023	0.940430	5.740000	7.980000	2.100000	273.00	-0.234636	-0.117041	0.00	0.00	0.00	0.00	0.00	0.00	0.00	0.00	5.50	9.25	7.50	2.75	1.00	20.50	3.00	3.75	-0.529785	0.360352	1.232422	-34.160000	193.270004	-39.970001	511.00	0.311446	0.051380
3.35	3.75	3.75	4.50	5.50	0.50	2.50	0.00	1.75	0.00	0.25	0.00	0.50	1.25	2.50	0.00	1.50	-0.238281	0.113770	0.969727	8.960000	7.350000	1.960000	291.00	-0.173655	-0.114243	0.00	0.00	0.00	0.00	0.00	0.00	0.00	0.00	5.50	8.25	6.00	1.75	0.50	19.75	2.50	3.00	-0.521484	0.066895	1.431641	-44.660000	218.050003	-49.910000	454.00	0.316832	0.072892
3.36	3.75	3.75	4.50	5.75	0.50	3.00	0.00	1.75	0.00	0.25	0.25	0.75	1.75	3.75	0.00	1.75	-0.254395	0.111328	0.979492	9.520000	5.180000	1.960000	321.00	-0.141549	-0.115234	0.00	0.00	0.00	0.00	0.00	0.00	0.00	0.00	5.25	7.25	5.00	0.75	0.25	17.75	1.75	2.25	-0.566895	0.311523	1.350098	-47.389999	253.540009	-53.760002	388.00	0.319131	0.092149
3.37	3.75	4.50	5.25	6.25	0.75	3.50	0.00	2.25	0.00	0.50	0.25	0.50	2.25	3.50	0.00	2.50	-0.217285	0.124023	0.982422	9.240000	2.870000	2.100000	364.00	-0.142880	-0.125430	0.00	0.00	0.00	0.00	0.00	0.00	0.00	0.00	4.50	6.75	3.50	0.25	0.00	14.50	1.25	1.75	-0.580078	0.027344	1.554688	-51.450001	269.709991	-61.180000	314.00	0.319857	0.106536
3.38	4.50	5.00	6.00	6.75	1.00	4.25	0.00	2.50	0.00	0.25	0.25	0.50	2.25	4.00	0.00	2.50	-0.230957	0.111816	0.987305	9.170000	1.750000	1.960000	407.00	-0.150911	-0.120568	0.00	0.00	0.00	0.00	0.00	0.00	0.00	0.00	3.50	6.00	1.75	0.25	0.00	11.25	1.25	1.25	-0.619141	0.209961	1.599121	-71.750000	287.630005	-58.450001	245.00	0.321826	0.112177
3.39	5.00	5.00	6.75	7.50	1.50	4.75	0.00	2.75	0.00	0.00	0.25	0.75	2.50	5.00	0.00	2.75	-0.224121	0.105957	0.983887	8.190000	1.190000	1.750000	455.00	-0.143463	-0.116568	0.00	0.00	0.00	0.00	0.00	0.00	0.00	0.00	2.50	4.00	0.50	0.25	0.00	9.00	1.00	0.50	-0.645020	0.219727	1.163574	-53.549999	303.730011	-57.610001	172.00	0.331554	0.128784
3.40	5.50	5.25	7.50	7.75	1.50	5.50	0.00	3.00	0.00	0.00	0.75	1.25	2.75	5.25	0.25	2.75	-0.214355	0.109375	0.970703	7.630000	0.630000	2.030000	503.00	-0.135238	-0.118188	0.00	0.00	0.00	0.00	0.00	0.00	0.00	0.00	2.00	2.50	0.50	0.00	0.00	6.25	0.75	0.50	-0.860352	0.376953	1.653809	-40.040001	322.000000	-57.470001	121.00	0.332630	0.133622
3.41	5.50	5.50	7.75	8.00	2.00	6.25	0.00	3.25	0.00	0.00	0.50	1.25	3.00	5.50	0.00	2.75	-0.212402	0.118164	0.972168	7.000000	0.490000	1.960000	527.00	-0.138256	-0.120761	0.00	0.00	0.00	0.00	0.00	0.00	0.00	0.00	1.00	1.50	0.25	0.25	0.00	3.75	0.50	0.25	-0.863770	-0.033203	1.835938	-24.710001	296.799988	-56.349998	72.00	0.332015	0.114805
3.42	5.75	5.50	8.25	8.75	2.25	6.50	0.00	3.75	0.00	0.25	0.75	1.25	3.25	5.75	0.00	3.00	-0.218262	0.118652	0.973633	6.370000	-0.140000	1.750000	568.00	-0.133348	-0.122416	0.00	0.00	0.00	0.00	0.00	0.00	0.00	0.00	0.50	0.50	0.50	0.25	0.00	1.00	0.25	0.25	-0.560059	0.118164	1.762695	-61.320000	291.059998	-55.439999	32.00	0.000000	0.000000
3.43	6.50	6.00	8.75	9.75	2.25	6.75	0.00	4.00	0.00	0.50	0.75	1.50	3.75	6.00	0.25	3.00	-0.216797	0.132324	0.976074	5.950000	-0.210000	1.680000	618.00	-0.132780	-0.123195	0.00	0.00	0.00	0.00	0.00	0.00	0.00	0.00	0.25	0.50	0.50	0.00	0.00	1.00	0.25	0.00	-0.476562	0.183105	1.225586	-113.190002	272.860016	-63.209999	25.00	0.000000	0.000000
3.44	6.50	6.50	9.25	10.00	3.00	7.25	0.00	4.50	0.00	0.50	1.00	2.00	4.00	6.25	0.00	3.50	-0.220703	0.122559	0.974609	5.530000	-0.000000	1.610000	664.00	-0.128451	-0.126563	0.00	0.00	0.00	0.00	0.00	0.00	0.00	0.00	0.25	0.50	0.25	0.00	0.00	1.00	0.00	0.25	-0.350098	0.228027	1.251953	-132.089996	262.920013	-60.480000	21.00	0.000000	0.000000
3.45	6.50	6.50	9.75	10.00	2.75	7.75	0.00	4.50	0.00	0.50	1.00	2.25	3.75	6.50	0.25	3.50	-0.218262	0.121582	0.977051	5.040000	0.420000	1.540000	678.00	-0.125644	-0.125179	0.00	0.00	0.00	0.00	0.00	0.00	0.00	0.00	0.25	0.50	0.25	0.00	0.00	0.75	0.25	0.00	-0.343262	0.003906	0.851562	-165.899994	260.890015	-63.000000	20.00	0.000000	0.000000
3.46	6.75	6.75	9.75	10.50	3.00	8.00	0.00	4.75	0.00	0.75	1.00	2.25	4.25	6.50	0.25	3.50	-0.223145	0.126465	0.974121	4.550000	0.490000	1.680000	704.00	-0.125198	-0.127887	0.00	0.00	0.00	0.00	0.00	0.00	0.00	0.00	0.25	0.25	0.00	0.00	0.00	0.50	0.00	0.00	-0.388672	0.071777	0.703125	-206.430008	254.309998	-61.389999	10.00	0.000000	0.000000
3.47	6.75	6.75	9.50	10.50	3.00	8.00	0.00	5.00	0.00	0.50	1.25	2.00	4.25	7.00	0.50	3.50	-0.223633	0.132324	0.975586	3.500000	0.770000	1.540000	709.00	-0.120123	-0.128190	0.00	0.00	0.00	0.00	0.00	0.00	0.00	0.00	0.00	0.00	0.00	0.00	0.00	0.25	0.00	0.00	0.402832	0.667480	1.470703	-191.449997	236.600006	-48.930000	2.00	0.000000	0.000000
3.48	6.50	6.50	9.50	10.25	3.25	8.25	0.00	5.00	0.00	0.75	1.50	2.75	4.50	8.00	0.50	4.00	-0.226074	0.130859	0.985840	2.450000	0.770000	1.120000	734.00	-0.102835	-0.127573	0.00	0.00	0.00	0.00	0.00	0.00	0.00	0.00	0.00	0.00	0.00	0.00	0.00	0.00	0.00	0.00	0.199219	0.856934	2.555176	-108.919998	57.330002	-7.000000	0.00	0.000000	0.000000
3.49	7.00	6.50	9.25	10.25	3.25	8.25	0.00	5.25	0.00	1.00	1.50	2.75	4.75	8.25	0.50	4.00	-0.224121	0.126953	0.975098	2.170000	0.630000	0.910000	747.00	-0.100393	-0.127524	0.00	0.00	0.00	0.00	0.00	0.00	0.00	0.00	0.00	0.00	0.00	0.00	0.00	0.00	0.00	0.00	0.552734	0.436035	1.675293	-91.840004	-37.380001	17.990000	0.00	0.000000	0.000000
3.50	6.75	6.50	9.25	10.25	3.75	8.25	0.00	5.50	0.00	1.00	2.00	2.50	4.50	8.00	0.75	4.00	-0.220215	0.125488	0.974609	1.960000	0.700000	0.700000	755.00	-0.098358	-0.127370	0.00	0.00	0.00	0.00	0.00	0.00	0.00	0.00	0.00	0.00	0.00	0.00	0.00	0.25	0.00	0.00	0.247559	0.363770	1.215820	-116.550003	-93.169998	29.330000	2.00	0.000000	0.000000
3.51	6.50	6.50	9.00	10.00	3.25	8.25	0.00	5.50	0.00	1.00	2.00	3.00	4.75	8.00	0.75	3.75	-0.219727	0.127930	0.981934	1.610000	1.190000	0.560000	747.00	-0.093677	-0.131843	0.00	0.00	0.00	0.00	0.00	0.00	0.00	0.00	0.00	0.00	0.00	0.00	0.00	0.25	0.00	0.00	0.189941	0.312012	0.793945	-140.839996	-112.419998	36.610001	2.00	0.000000	0.000000
3.52	6.25	6.00	8.50	9.50	3.25	8.00	0.00	5.25	0.00	0.75	1.50	3.25	4.75	9.00	1.00	3.75	-0.221680	0.124023	0.970703	1.470000	1.820000	0.420000	728.00	-0.082628	-0.129197	0.00	0.00	0.00	0.00	0.00	0.00	0.00	0.00	0.00	0.00	0.00	0.00	0.00	0.25	0.00	0.00	0.144531	0.344727	0.577148	-154.419998	-113.050003	39.340000	2.00	0.000000	0.000000
3.53	6.00	5.75	8.25	9.00	3.25	7.75	0.00	5.25	0.00	0.75	2.75	3.75	4.75	9.00	1.00	4.00	-0.222656	0.131348	0.973633	1.260000	2.100000	0.490000	732.00	-0.069519	-0.130806	0.00	0.00	0.00	0.00	0.00	0.00	0.00	0.00	0.00	0.00	0.00	0.00	0.00	0.50	0.00	0.00	0.087891	0.400879	0.536621	-153.440002	-109.480003	40.880001	4.00	0.000000	0.000000
3.54	5.75	6.00	8.00	8.50	3.00	7.75	0.00	5.25	0.00	1.00	2.25	3.75	5.00	9.25	0.75	4.25	-0.220215	0.134766	0.973633	1.190000	2.870000	0.140000	721.00	-0.066617	-0.132657	0.00	0.00	0.00	0.00	0.00	0.00	0.00	0.00	0.00	0.00	0.00	0.00	0.00	0.25	0.00	0.00	0.066895	0.470215	0.573242	-134.539993	-106.820000	45.709999	2.00	0.000000	0.000000
3.55	5.50	5.75	7.50	8.25	3.00	7.50	0.00	5.25	0.00	1.25	2.00	3.50	5.00	9.00	1.00	4.25	-0.222168	0.131348	0.971191	0.980000	3.150000	0.000000	703.00	-0.062121	-0.133772	0.00	0.00	0.00	0.00	0.00	0.00	0.00	0.00	0.00	0.00	0.00	0.00	0.00	0.00	0.00	0.00	0.045898	0.478516	0.638184	-121.309998	-109.059998	52.009998	0.00	0.000000	0.000000
